%time,field.header.seq,field.header.stamp,field.header.frame_id,field.orientation.x,field.orientation.y,field.orientation.z,field.orientation.w,field.orientation_covariance0,field.orientation_covariance1,field.orientation_covariance2,field.orientation_covariance3,field.orientation_covariance4,field.orientation_covariance5,field.orientation_covariance6,field.orientation_covariance7,field.orientation_covariance8,field.angular_velocity.x,field.angular_velocity.y,field.angular_velocity.z,field.angular_velocity_covariance0,field.angular_velocity_covariance1,field.angular_velocity_covariance2,field.angular_velocity_covariance3,field.angular_velocity_covariance4,field.angular_velocity_covariance5,field.angular_velocity_covariance6,field.angular_velocity_covariance7,field.angular_velocity_covariance8,field.linear_acceleration.x,field.linear_acceleration.y,field.linear_acceleration.z,field.linear_acceleration_covariance0,field.linear_acceleration_covariance1,field.linear_acceleration_covariance2,field.linear_acceleration_covariance3,field.linear_acceleration_covariance4,field.linear_acceleration_covariance5,field.linear_acceleration_covariance6,field.linear_acceleration_covariance7,field.linear_acceleration_covariance8
1474475389101873610,333,1474475389102930068,sparus2,-0.00288029733456,0.0311337726207,0.944615520832,0.32668625605,0.1,0.0,0.0,0.0,0.1,0.0,0.0,0.0,0.1,-0.113905016026,-0.0523778179778,0.0869262706242,0.1,0.0,0.0,0.0,0.1,0.0,0.0,0.0,0.1,0.352590620795,-0.682846913251,-10.1181648929,0.1,0.0,0.0,0.0,0.1,0.0,0.0,0.0,0.1
1474475389202440723,334,1474475389205869913,sparus2,-0.000986697866662,0.0248894900931,0.945021112161,0.326059254246,0.1,0.0,0.0,0.0,0.1,0.0,0.0,0.0,0.1,-0.105615980906,-0.0755168802168,0.0418684201053,0.1,0.0,0.0,0.0,0.1,0.0,0.0,0.0,0.1,0.293929845483,-0.567902063481,-10.1893927537,0.1,0.0,0.0,0.0,0.1,0.0,0.0,0.0,0.1
1474475389303065930,335,1474475389302480936,sparus2,0.00219386756384,0.0197246967419,0.944930402778,0.326669033103,0.1,0.0,0.0,0.0,0.1,0.0,0.0,0.0,0.1,-0.0786664748474,-0.0988111327162,0.014523197262,0.1,0.0,0.0,0.0,0.1,0.0,0.0,0.0,0.1,0.185337768606,-0.351912167418,-10.1748199577,0.1,0.0,0.0,0.0,0.1,0.0,0.0,0.0,0.1
1474475389393561745,336,1474475389399935960,sparus2,0.00643444804143,0.0160491283633,0.944930009439,0.326815392261,0.1,0.0,0.0,0.0,0.1,0.0,0.0,0.0,0.1,-0.0378108430361,-0.109299190948,0.022596118388,0.1,0.0,0.0,0.0,0.1,0.0,0.0,0.0,0.1,0.114069240323,-0.159206018263,-10.1283226561,0.1,0.0,0.0,0.0,0.1,0.0,0.0,0.0,0.1
1474475389494136048,337,1474475389498140096,sparus2,0.0107613322683,0.0140531154609,0.944894060211,0.32689741304,0.1,0.0,0.0,0.0,0.1,0.0,0.0,0.0,0.1,-0.00310066121601,-0.100468944873,0.0257469152864,0.1,0.0,0.0,0.0,0.1,0.0,0.0,0.0,0.1,0.066307961914,-0.0980165308998,-10.0818390028,0.1,0.0,0.0,0.0,0.1,0.0,0.0,0.0,0.1
1474475389594732794,338,1474475389596304893,sparus2,0.0136341768116,0.0141582807463,0.945134990468,0.326088181482,0.1,0.0,0.0,0.0,0.1,0.0,0.0,0.0,0.1,0.0297810259204,-0.0583887309717,0.0438300279392,0.1,0.0,0.0,0.0,0.1,0.0,0.0,0.0,0.1,0.0222095926941,-0.0520841432733,-10.0353416563,0.1,0.0,0.0,0.0,0.1,0.0,0.0,0.0,0.1
1474475389695311164,339,1474475389698082923,sparus2,0.0136004094235,0.0157526479301,0.945057877275,0.326239929419,0.1,0.0,0.0,0.0,0.1,0.0,0.0,0.0,0.1,0.0466735486036,0.00365999890958,0.0494982856197,0.1,0.0,0.0,0.0,0.1,0.0,0.0,0.0,0.1,0.0244639993592,-0.0676019527847,-9.94904133196,0.1,0.0,0.0,0.0,0.1,0.0,0.0,0.0,0.1
1474475389795902151,340,1474475389797895908,sparus2,0.010911580892,0.0195470063208,0.944980139042,0.326360826024,0.1,0.0,0.0,0.0,0.1,0.0,0.0,0.0,0.1,0.0714206211097,0.0714795315395,0.054535566396,0.1,0.0,0.0,0.0,0.1,0.0,0.0,0.0,0.1,0.072174862121,-0.144735865654,-9.76802835554,0.1,0.0,0.0,0.0,0.1,0.0,0.0,0.0,0.1
1474475389886436795,341,1474475389893438100,sparus2,0.00629708293937,0.025046487417,0.945544916755,0.324465453653,0.1,0.0,0.0,0.0,0.1,0.0,0.0,0.0,0.1,0.0832041944922,0.126940739044,0.0650636086464,0.1,0.0,0.0,0.0,0.1,0.0,0.0,0.0,0.1,0.120141816251,-0.221822376747,-9.60270385751,0.1,0.0,0.0,0.0,0.1,0.0,0.0,0.0,0.1
1474475389997096724,342,1474475389998631000,sparus2,2.9482110342e-05,0.0318632443753,0.946397388838,0.321429176007,0.1,0.0,0.0,0.0,0.1,0.0,0.0,0.0,0.1,0.0890131144871,0.161891389338,0.0852922424572,0.1,0.0,0.0,0.0,0.1,0.0,0.0,0.0,0.1,0.203464158908,-0.411458420057,-9.45283509812,0.1,0.0,0.0,0.0,0.1,0.0,0.0,0.0,0.1
1474475390087623921,343,1474475390093422889,sparus2,-0.00609100221134,0.0389988610489,0.947250359073,0.318054627014,0.1,0.0,0.0,0.0,0.1,0.0,0.0,0.0,0.1,0.0973576997657,0.171985689509,0.0983454957518,0.1,0.0,0.0,0.0,0.1,0.0,0.0,0.0,0.1,0.307368961124,-0.612380823492,-9.40466767382,0.1,0.0,0.0,0.0,0.1,0.0,0.0,0.0,0.1
1474475390188242182,344,1474475390190427064,sparus2,-0.0115602165446,0.0459650362517,0.947997656784,0.314728485473,0.1,0.0,0.0,0.0,0.1,0.0,0.0,0.0,0.1,0.0962041880022,0.159408440897,0.0989691990471,0.1,0.0,0.0,0.0,0.1,0.0,0.0,0.0,0.1,0.424742833712,-0.769713937272,-9.34045588244,0.1,0.0,0.0,0.0,0.1,0.0,0.0,0.0,0.1
1474475390288978368,345,1474475390296792984,sparus2,-0.0162901485359,0.0530363926656,0.948710705796,0.311239086269,0.1,0.0,0.0,0.0,0.1,0.0,0.0,0.0,0.1,0.0926045967951,0.134715991441,0.0932226181651,0.1,0.0,0.0,0.0,0.1,0.0,0.0,0.0,0.1,0.502493182548,-0.920543606359,-9.41026005343,0.1,0.0,0.0,0.0,0.1,0.0,0.0,0.0,0.1
1474475390389432870,346,1474475390392962932,sparus2,-0.0189255702495,0.058709080601,0.949154078094,0.308709576599,0.1,0.0,0.0,0.0,0.1,0.0,0.0,0.0,0.1,0.0923261044839,0.101009778882,0.0831894838158,0.1,0.0,0.0,0.0,0.1,0.0,0.0,0.0,0.1,0.543395256824,-0.983422202421,-9.50393918247,0.1,0.0,0.0,0.0,0.1,0.0,0.0,0.0,0.1
1474475390490022591,347,1474475390489173889,sparus2,-0.0199052867949,0.0638494952436,0.949161364414,0.307603195397,0.1,0.0,0.0,0.0,0.1,0.0,0.0,0.0,0.1,0.0905505443702,0.0687820222972,0.0755559808964,0.1,0.0,0.0,0.0,0.1,0.0,0.0,0.0,0.1,0.573134989356,-1.03285131189,-9.60560628451,0.1,0.0,0.0,0.0,0.1,0.0,0.0,0.0,0.1
1474475390580632949,348,1474475390585320949,sparus2,-0.0190725980768,0.0678683813375,0.949176154413,0.306748670268,0.1,0.0,0.0,0.0,0.1,0.0,0.0,0.0,0.1,0.0855248016051,0.0238852987671,0.0654049797108,0.1,0.0,0.0,0.0,0.1,0.0,0.0,0.0,0.1,0.61634379226,-1.0386911317,-9.69122901947,0.1,0.0,0.0,0.0,0.1,0.0,0.0,0.0,0.1
1474475390681221465,349,1474475390687935113,sparus2,-0.0169456964499,0.070428971189,0.949405855159,0.305583254743,0.1,0.0,0.0,0.0,0.1,0.0,0.0,0.0,0.1,0.066943245128,-0.0103108635192,0.0657887073477,0.1,0.0,0.0,0.0,0.1,0.0,0.0,0.0,0.1,0.6025429068,-1.00979493826,-9.7619845992,0.1,0.0,0.0,0.0,0.1,0.0,0.0,0.0,0.1
1474475390781825398,350,1474475390785840988,sparus2,-0.0135587759406,0.0712599434384,0.949936382842,0.303906315513,0.1,0.0,0.0,0.0,0.1,0.0,0.0,0.0,0.1,0.0522907879838,-0.0484690588257,0.0757397478505,0.1,0.0,0.0,0.0,0.1,0.0,0.0,0.0,0.1,0.589345341057,-0.916207717811,-9.83253487065,0.1,0.0,0.0,0.0,0.1,0.0,0.0,0.0,0.1
1474475390882411741,351,1474475390883713960,sparus2,-0.0091504603785,0.0709140640604,0.950816450165,0.301389353975,0.1,0.0,0.0,0.0,0.1,0.0,0.0,0.0,0.1,0.038613219467,-0.0777983998174,0.0935910320001,0.1,0.0,0.0,0.0,0.1,0.0,0.0,0.0,0.1,0.557305633369,-0.883558910559,-9.83295922545,0.1,0.0,0.0,0.0,0.1,0.0,0.0,0.0,0.1
1474475390983014317,352,1474475390986372947,sparus2,-0.00399308500184,0.0696239723398,0.951726543425,0.298919963012,0.1,0.0,0.0,0.0,0.1,0.0,0.0,0.0,0.1,0.0197213804537,-0.0948933077884,0.092340288417,0.1,0.0,0.0,0.0,0.1,0.0,0.0,0.0,0.1,0.482643122917,-0.974120525069,-9.85799081053,0.1,0.0,0.0,0.0,0.1,0.0,0.0,0.0,0.1
1474475391083542463,353,1474475391084098100,sparus2,0.000413110910855,0.0670516620823,0.952469895742,0.297161575001,0.1,0.0,0.0,0.0,0.1,0.0,0.0,0.0,0.1,-0.0203956445799,-0.0980214787666,0.0958810822937,0.1,0.0,0.0,0.0,0.1,0.0,0.0,0.0,0.1,0.491316462068,-1.17380123482,-9.92122376171,0.1,0.0,0.0,0.0,0.1,0.0,0.0,0.0,0.1
1474475391174086562,354,1474475391181935071,sparus2,0.0035345072531,0.0635778869531,0.95331348009,0.295192764525,0.1,0.0,0.0,0.0,0.1,0.0,0.0,0.0,0.1,-0.0526361763729,-0.0796127047033,0.0773338133084,0.1,0.0,0.0,0.0,0.1,0.0,0.0,0.0,0.1,0.46194354701,-1.31804229127,-9.95352465077,0.1,0.0,0.0,0.0,0.1,0.0,0.0,0.0,0.1
1474475391274688669,355,1474475391279733896,sparus2,0.00537123530999,0.059140497947,0.953914883222,0.294142732192,0.1,0.0,0.0,0.0,0.1,0.0,0.0,0.0,0.1,-0.0816835977496,-0.0618909314217,0.0596624875496,0.1,0.0,0.0,0.0,0.1,0.0,0.0,0.0,0.1,0.4150699286,-1.35355753197,-10.0171683085,0.1,0.0,0.0,0.0,0.1,0.0,0.0,0.0,0.1
1474475391375361770,356,1474475391382174015,sparus2,0.00577554147413,0.0547661257351,0.954461447837,0.293207536031,0.1,0.0,0.0,0.0,0.1,0.0,0.0,0.0,0.1,-0.0836615482996,-0.0325379416586,0.0536509912127,0.1,0.0,0.0,0.0,0.1,0.0,0.0,0.0,0.1,0.395865816337,-1.23717946547,-10.0563621631,0.1,0.0,0.0,0.0,0.1,0.0,0.0,0.0,0.1
1474475391475923902,357,1474475391480712890,sparus2,0.00605770375948,0.0511400905227,0.954926794651,0.292340233673,0.1,0.0,0.0,0.0,0.1,0.0,0.0,0.0,0.1,-0.0719353191854,-0.0265349087269,0.0523678364908,0.1,0.0,0.0,0.0,0.1,0.0,0.0,0.0,0.1,0.322290559426,-1.10151209257,-10.0179212556,0.1,0.0,0.0,0.0,0.1,0.0,0.0,0.0,0.1
1474475391576516400,358,1474475391577939987,sparus2,0.00699710077698,0.0476073992753,0.955273484077,0.291782704653,0.1,0.0,0.0,0.0,0.1,0.0,0.0,0.0,0.1,-0.0624670242848,-0.0410119139236,0.0762588729978,0.1,0.0,0.0,0.0,0.1,0.0,0.0,0.0,0.1,0.290222602825,-0.907420128464,-9.92370146941,0.1,0.0,0.0,0.0,0.1,0.0,0.0,0.0,0.1
1474475391677072518,359,1474475391680851936,sparus2,0.00837343441479,0.0433828825996,0.956011727105,0.289981704132,0.1,0.0,0.0,0.0,0.1,0.0,0.0,0.0,0.1,-0.0652824999803,-0.0481816756915,0.0888432305939,0.1,0.0,0.0,0.0,0.1,0.0,0.0,0.0,0.1,0.178683568898,-0.748587513094,-9.87796387155,0.1,0.0,0.0,0.0,0.1,0.0,0.0,0.0,0.1
1474475391777656429,360,1474475391778944969,sparus2,0.00966219879105,0.0385801474502,0.956931153149,0.287577784731,0.1,0.0,0.0,0.0,0.1,0.0,0.0,0.0,0.1,-0.079845584416,-0.0499465903818,0.103243791314,0.1,0.0,0.0,0.0,0.1,0.0,0.0,0.0,0.1,0.0852029895511,-0.666087798185,-9.8164693292,0.1,0.0,0.0,0.0,0.1,0.0,0.0,0.0,0.1
1474475391868180023,361,1474475391875571966,sparus2,0.0102478050736,0.0340083564158,0.957896865892,0.284907017286,0.1,0.0,0.0,0.0,0.1,0.0,0.0,0.0,0.1,-0.0800101476397,-0.034931560841,0.108829035927,0.1,0.0,0.0,0.0,0.1,0.0,0.0,0.0,0.1,0.028540529536,-0.566708159703,-9.78570838731,0.1,0.0,0.0,0.0,0.1,0.0,0.0,0.0,0.1
1474475391968799042,362,1474475391973222017,sparus2,0.00947894273478,0.0300303162947,0.958761539796,0.282461748838,0.1,0.0,0.0,0.0,0.1,0.0,0.0,0.0,0.1,-0.0742603826166,-0.00276138914312,0.103276895234,0.1,0.0,0.0,0.0,0.1,0.0,0.0,0.0,0.1,-0.0202383608729,-0.465449805414,-9.77050588322,0.1,0.0,0.0,0.0,0.1,0.0,0.0,0.0,0.1
1474475392069381684,363,1474475392075263977,sparus2,0.00717804908944,0.0280571203361,0.959518801058,0.280151644697,0.1,0.0,0.0,0.0,0.1,0.0,0.0,0.0,0.1,-0.0480762829789,0.03270858965,0.104542276145,0.1,0.0,0.0,0.0,0.1,0.0,0.0,0.0,0.1,0.10153653978,-0.533066817,-9.80795439227,0.1,0.0,0.0,0.0,0.1,0.0,0.0,0.0,0.1
1474475392169973058,364,1474475392172971963,sparus2,0.00370261907162,0.0277401851313,0.960181333275,0.277972264751,0.1,0.0,0.0,0.0,0.1,0.0,0.0,0.0,0.1,-0.0247089538664,0.0691019334988,0.10409474459,0.1,0.0,0.0,0.0,0.1,0.0,0.0,0.0,0.1,0.119180702078,-0.504639823528,-9.82327328873,0.1,0.0,0.0,0.0,0.1,0.0,0.0,0.0,0.1
1474475392270590317,365,1474475392271363973,sparus2,0.000125761604063,0.0283472425691,0.960664927731,0.276259505992,0.1,0.0,0.0,0.0,0.1,0.0,0.0,0.0,0.1,-0.00767123956298,0.0798175270479,0.0890719965173,0.1,0.0,0.0,0.0,0.1,0.0,0.0,0.0,0.1,0.101454062586,-0.500792406162,-9.78431902056,0.1,0.0,0.0,0.0,0.1,0.0,0.0,0.0,0.1
1474475392371162413,366,1474475392373366117,sparus2,-0.00232863172434,0.0296887235155,0.961002141119,0.274932795305,0.1,0.0,0.0,0.0,0.1,0.0,0.0,0.0,0.1,0.00990526228689,0.0623596007065,0.0767114585591,0.1,0.0,0.0,0.0,0.1,0.0,0.0,0.0,0.1,0.105494355355,-0.556236877268,-9.71380298216,0.1,0.0,0.0,0.0,0.1,0.0,0.0,0.0,0.1
1474475392461705651,367,1474475392471142053,sparus2,-0.00314824897974,0.0313757306017,0.960963584215,0.27487204636,0.1,0.0,0.0,0.0,0.1,0.0,0.0,0.0,0.1,0.0278296333493,0.0225795310767,0.0628204835433,0.1,0.0,0.0,0.0,0.1,0.0,0.0,0.0,0.1,0.346114519189,-0.554886912555,-9.64709992488,0.1,0.0,0.0,0.0,0.1,0.0,0.0,0.0,0.1
1474475392562304044,368,1474475392570825099,sparus2,-0.00194687077696,0.0325258266514,0.96105736365,0.274421252949,0.1,0.0,0.0,0.0,0.1,0.0,0.0,0.0,0.1,0.0355715658451,-0.0182739643205,0.0624040848931,0.1,0.0,0.0,0.0,0.1,0.0,0.0,0.0,0.1,0.291923742189,-0.463017319498,-9.65555333233,0.1,0.0,0.0,0.0,0.1,0.0,0.0,0.0,0.1
1474475392662977609,369,1474475392669783115,sparus2,0.000835119136874,0.0336965262165,0.961313674717,0.273385927763,0.1,0.0,0.0,0.0,0.1,0.0,0.0,0.0,0.1,0.0453705132979,-0.0526825570625,0.0769410984175,0.1,0.0,0.0,0.0,0.1,0.0,0.0,0.0,0.1,0.338667408599,-0.484137939935,-9.73331813487,0.1,0.0,0.0,0.0,0.1,0.0,0.0,0.0,0.1
1474475392763523106,370,1474475392767827987,sparus2,0.00387605361079,0.0355313929501,0.961961483441,0.270836852551,0.1,0.0,0.0,0.0,0.1,0.0,0.0,0.0,0.1,0.0649663776125,-0.0532391238602,0.101492638091,0.1,0.0,0.0,0.0,0.1,0.0,0.0,0.0,0.1,0.304373294246,-0.435971323172,-9.82004281399,0.1,0.0,0.0,0.0,0.1,0.0,0.0,0.0,0.1
1474475392864134952,371,1474475392865065097,sparus2,0.00580235408975,0.0381495868918,0.96277734026,0.267527073002,0.1,0.0,0.0,0.0,0.1,0.0,0.0,0.0,0.1,0.0763030176693,-0.0257696291302,0.120469069013,0.1,0.0,0.0,0.0,0.1,0.0,0.0,0.0,0.1,0.256390926854,-0.496013920404,-9.94654988603,0.1,0.0,0.0,0.0,0.1,0.0,0.0,0.0,0.1
1474475392954659427,372,1474475392962629079,sparus2,0.00656813098828,0.0422562886595,0.963885685873,0.262860514899,0.1,0.0,0.0,0.0,0.1,0.0,0.0,0.0,0.1,0.0901204465979,0.00947172006273,0.126049409251,0.1,0.0,0.0,0.0,0.1,0.0,0.0,0.0,0.1,0.269074403544,-0.646308104661,-9.99387535734,0.1,0.0,0.0,0.0,0.1,0.0,0.0,0.0,0.1
1474475393065297380,373,1474475393067830085,sparus2,0.00600351319615,0.0475830612041,0.964826830847,0.258474363512,0.1,0.0,0.0,0.0,0.1,0.0,0.0,0.0,0.1,0.0985090414347,0.039469186522,0.113771045735,0.1,0.0,0.0,0.0,0.1,0.0,0.0,0.0,0.1,0.32709304412,-0.81798361913,-10.0326790001,0.1,0.0,0.0,0.0,0.1,0.0,0.0,0.0,0.1
1474475393155787272,374,1474475393164315938,sparus2,0.00400236132058,0.052208837314,0.965416003314,0.255401955662,0.1,0.0,0.0,0.0,0.1,0.0,0.0,0.0,0.1,0.0818289451065,0.066934838503,0.094231087232,0.1,0.0,0.0,0.0,0.1,0.0,0.0,0.0,0.1,0.361589021562,-0.995271580131,-10.0326515686,0.1,0.0,0.0,0.0,0.1,0.0,0.0,0.0,0.1
1474475393256486634,375,1474475393262875080,sparus2,0.00172482616386,0.0561991135048,0.96558055671,0.253954470566,0.1,0.0,0.0,0.0,0.1,0.0,0.0,0.0,0.1,0.0639642594237,0.0661619745613,0.0598915052184,0.1,0.0,0.0,0.0,0.1,0.0,0.0,0.0,0.1,0.433326070405,-1.1635688772,-9.97706425996,0.1,0.0,0.0,0.0,0.1,0.0,0.0,0.0,0.1
1474475393357083079,376,1474475393364998102,sparus2,-0.000683535524862,0.0590680222394,0.965413969164,0.253941665883,0.1,0.0,0.0,0.0,0.1,0.0,0.0,0.0,0.1,0.038212842039,0.0601743469528,0.027857935842,0.1,0.0,0.0,0.0,0.1,0.0,0.0,0.0,0.1,0.43152477104,-1.26077132393,-9.92246254806,0.1,0.0,0.0,0.0,0.1,0.0,0.0,0.0,0.1
1474475393457663442,377,1474475393462270975,sparus2,-0.00235792823495,0.060020796046,0.964675029732,0.256503472156,0.1,0.0,0.0,0.0,0.1,0.0,0.0,0.0,0.1,0.0043573786296,0.0372857874662,0.00448670345367,0.1,0.0,0.0,0.0,0.1,0.0,0.0,0.0,0.1,0.433102040582,-1.21183511532,-9.75751452356,0.1,0.0,0.0,0.0,0.1,0.0,0.0,0.0,0.1
1474475393568419911,378,1474475393562813043,sparus2,-0.00316017211519,0.0593330442978,0.964093705856,0.258829923878,0.1,0.0,0.0,0.0,0.1,0.0,0.0,0.0,0.1,-0.0165963400629,0.0125134845008,-0.000839442398492,0.1,0.0,0.0,0.0,0.1,0.0,0.0,0.0,0.1,0.396767855073,-1.06717707849,-9.66351373886,0.1,0.0,0.0,0.0,0.1,0.0,0.0,0.0,0.1
1474475393658929849,379,1474475393656619071,sparus2,-0.00339223832958,0.0579059929897,0.964078764718,0.259205563434,0.1,0.0,0.0,0.0,0.1,0.0,0.0,0.0,0.1,-0.0275866762372,-0.000574549846727,0.0128126359943,0.1,0.0,0.0,0.0,0.1,0.0,0.0,0.0,0.1,0.327836210649,-0.922263149684,-9.55435148473,0.1,0.0,0.0,0.0,0.1,0.0,0.0,0.0,0.1
1474475393759513286,380,1474475393759486913,sparus2,-0.00381356127369,0.0561113411365,0.964549512597,0.257839508018,0.1,0.0,0.0,0.0,0.1,0.0,0.0,0.0,0.1,-0.0311076369701,0.00361771282258,0.0438164836651,0.1,0.0,0.0,0.0,0.1,0.0,0.0,0.0,0.1,0.287921593144,-0.794622423949,-9.48399976497,0.1,0.0,0.0,0.0,0.1,0.0,0.0,0.0,0.1
1474475393850038520,381,1474475393856833934,sparus2,-0.00426365765447,0.0548410433058,0.965537444212,0.254384993696,0.1,0.0,0.0,0.0,0.1,0.0,0.0,0.0,0.1,-0.0226535193338,0.0109743262239,0.0905764270855,0.1,0.0,0.0,0.0,0.1,0.0,0.0,0.0,0.1,0.233429156285,-0.735098344396,-9.49255582656,0.1,0.0,0.0,0.0,0.1,0.0,0.0,0.0,0.1
1474475393950716063,382,1474475393953557014,sparus2,-0.00497075075787,0.0544467640801,0.966589318553,0.250431489188,0.1,0.0,0.0,0.0,0.1,0.0,0.0,0.0,0.1,-0.00759538079116,0.0208926381183,0.102722775805,0.1,0.0,0.0,0.0,0.1,0.0,0.0,0.0,0.1,0.264917866219,-0.759881592893,-9.57058071028,0.1,0.0,0.0,0.0,0.1,0.0,0.0,0.0,0.1
1474475394051302410,383,1474475394055902004,sparus2,-0.00581932020266,0.0536955969795,0.967637034331,0.246498454699,0.1,0.0,0.0,0.0,0.1,0.0,0.0,0.0,0.1,-0.00874891729251,0.0261401691179,0.114738224741,0.1,0.0,0.0,0.0,0.1,0.0,0.0,0.0,0.1,0.255676209736,-0.746076592969,-9.69623227112,0.1,0.0,0.0,0.0,0.1,0.0,0.0,0.0,0.1
1474475394151889449,384,1474475394153481006,sparus2,-0.00681802537657,0.052730267843,0.968453169778,0.243457370664,0.1,0.0,0.0,0.0,0.1,0.0,0.0,0.0,0.1,-0.0134938773061,0.0288939050863,0.0989707575076,0.1,0.0,0.0,0.0,0.1,0.0,0.0,0.0,0.1,0.254446168543,-0.730369176348,-9.84528650896,0.1,0.0,0.0,0.0,0.1,0.0,0.0,0.0,0.1
1474475394242389354,385,1474475394251038074,sparus2,-0.00863367822078,0.0509670130982,0.96905108548,0.241387275776,0.1,0.0,0.0,0.0,0.1,0.0,0.0,0.0,0.1,-0.0347319966284,0.0412837347615,0.0763082947849,0.1,0.0,0.0,0.0,0.1,0.0,0.0,0.0,0.1,0.25363907942,-0.722551019371,-9.90804726909,0.1,0.0,0.0,0.0,0.1,0.0,0.0,0.0,0.1
1474475394342966988,386,1474475394348587989,sparus2,-0.0103656096302,0.047985083639,0.969557072505,0.23989387037,0.1,0.0,0.0,0.0,0.1,0.0,0.0,0.0,0.1,-0.0576867268493,0.0300992425178,0.0626336990637,0.1,0.0,0.0,0.0,0.1,0.0,0.0,0.0,0.1,0.317861953742,-0.650695824661,-9.95386022467,0.1,0.0,0.0,0.0,0.1,0.0,0.0,0.0,0.1
1474475394444080513,387,1474475394451102018,sparus2,-0.0121230255498,0.043920540266,0.969949014829,0.239004031402,0.1,0.0,0.0,0.0,0.1,0.0,0.0,0.0,0.1,-0.0805974693755,0.0224090514601,0.0510476506479,0.1,0.0,0.0,0.0,0.1,0.0,0.0,0.0,0.1,0.350882364728,-0.658840976275,-9.8827282164,0.1,0.0,0.0,0.0,0.1,0.0,0.0,0.0,0.1
1474475394544611433,388,1474475394548608064,sparus2,-0.0130095278218,0.0402266398972,0.970270038783,0.238303632932,0.1,0.0,0.0,0.0,0.1,0.0,0.0,0.0,0.1,-0.0768385883904,0.00246415605627,0.0585309454954,0.1,0.0,0.0,0.0,0.1,0.0,0.0,0.0,0.1,0.450078396841,-0.642994256193,-9.77121149355,0.1,0.0,0.0,0.0,0.1,0.0,0.0,0.0,0.1
1474475394645205908,389,1474475394646323919,sparus2,-0.0122911661838,0.0380267363182,0.970672810577,0.237059463777,0.1,0.0,0.0,0.0,0.1,0.0,0.0,0.0,0.1,-0.0459276188278,-0.0236590665592,0.0811958894939,0.1,0.0,0.0,0.0,0.1,0.0,0.0,0.0,0.1,0.46515298567,-0.711911914783,-9.68486324297,0.1,0.0,0.0,0.0,0.1,0.0,0.0,0.0,0.1
1474475394745787553,390,1474475394748963117,sparus2,-0.0100296659793,0.0381092009656,0.971076239696,0.235495289337,0.1,0.0,0.0,0.0,0.1,0.0,0.0,0.0,0.1,0.00391983913205,-0.042172778263,0.0893682593717,0.1,0.0,0.0,0.0,0.1,0.0,0.0,0.0,0.1,0.457434370449,-0.778339452265,-9.7165755486,0.1,0.0,0.0,0.0,0.1,0.0,0.0,0.0,0.1
1474475394846382267,391,1474475394845942020,sparus2,-0.00666990883967,0.0398025347391,0.971510149378,0.23353650721,0.1,0.0,0.0,0.0,0.1,0.0,0.0,0.0,0.1,0.0410550919725,-0.0580284118965,0.106148981847,0.1,0.0,0.0,0.0,0.1,0.0,0.0,0.0,0.1,0.402631613942,-0.848031520505,-9.7804519011,0.1,0.0,0.0,0.0,0.1,0.0,0.0,0.0,0.1
1474475394936921181,392,1474475394945691108,sparus2,-0.00327939658014,0.0419449429082,0.971966132641,0.231325969837,0.1,0.0,0.0,0.0,0.1,0.0,0.0,0.0,0.1,0.0522561422534,-0.0573697637164,0.109862600601,0.1,0.0,0.0,0.0,0.1,0.0,0.0,0.0,0.1,0.397475818719,-0.85737287996,-9.81979629102,0.1,0.0,0.0,0.0,0.1,0.0,0.0,0.0,0.1
1474475395037582555,393,1474475395041614055,sparus2,-0.00138977000544,0.0431254336769,0.972289267999,0.229764759796,0.1,0.0,0.0,0.0,0.1,0.0,0.0,0.0,0.1,0.0279145164152,-0.0343028413504,0.0963862613692,0.1,0.0,0.0,0.0,0.1,0.0,0.0,0.0,0.1,0.373484635023,-0.887394178577,-9.88304982705,0.1,0.0,0.0,0.0,0.1,0.0,0.0,0.0,0.1
1474475395138441791,394,1474475395144655942,sparus2,-0.00141262243296,0.0429117155355,0.972595304682,0.228505935326,0.1,0.0,0.0,0.0,0.1,0.0,0.0,0.0,0.1,-0.00510693568468,0.000227729810102,0.0744979838803,0.1,0.0,0.0,0.0,0.1,0.0,0.0,0.0,0.1,0.304333807933,-0.807100174111,-9.79762559877,0.1,0.0,0.0,0.0,0.1,0.0,0.0,0.0,0.1
1474475395239048897,395,1474475395241452932,sparus2,-0.00308809136658,0.0426487165789,0.972751881251,0.227871297419,0.1,0.0,0.0,0.0,0.1,0.0,0.0,0.0,0.1,-0.0105182978172,0.0330341946742,0.0585758646714,0.1,0.0,0.0,0.0,0.1,0.0,0.0,0.0,0.1,0.318744766585,-0.73104686651,-9.8206997735,0.1,0.0,0.0,0.0,0.1,0.0,0.0,0.0,0.1
1474475395329514639,396,1474475395338557004,sparus2,-0.00571420863757,0.0431553480609,0.972863045691,0.227249770256,0.1,0.0,0.0,0.0,0.1,0.0,0.0,0.0,0.1,-0.00150475714628,0.0630797950369,0.0539522496091,0.1,0.0,0.0,0.0,0.1,0.0,0.0,0.0,0.1,0.225422388151,-0.753354447311,-9.71244091184,0.1,0.0,0.0,0.0,0.1,0.0,0.0,0.0,0.1
1474475395440261029,397,1474475395440853118,sparus2,-0.00819926021613,0.0445973272714,0.973075432342,0.225982418575,0.1,0.0,0.0,0.0,0.1,0.0,0.0,0.0,0.1,0.0184367200998,0.064380804827,0.060958284764,0.1,0.0,0.0,0.0,0.1,0.0,0.0,0.0,0.1,0.2293869572,-0.736266033545,-9.71232456447,0.1,0.0,0.0,0.0,0.1,0.0,0.0,0.0,0.1
1474475395530789518,398,1474475395538475990,sparus2,-0.00940658242829,0.046768568767,0.973421788,0.223996071014,0.1,0.0,0.0,0.0,0.1,0.0,0.0,0.0,0.1,0.0422726099917,0.0457325834386,0.0775499516888,0.1,0.0,0.0,0.0,0.1,0.0,0.0,0.0,0.1,0.264796574007,-0.719646819747,-9.65677153383,0.1,0.0,0.0,0.0,0.1,0.0,0.0,0.0,0.1
1474475395631414051,399,1474475395636637926,sparus2,-0.00845015464327,0.0491533212751,0.97385205883,0.221640956069,0.1,0.0,0.0,0.0,0.1,0.0,0.0,0.0,0.1,0.0558909229614,0.00169588942308,0.0895304372342,0.1,0.0,0.0,0.0,0.1,0.0,0.0,0.0,0.1,0.30233064548,-0.775181276603,-9.65632663921,0.1,0.0,0.0,0.0,0.1,0.0,0.0,0.0,0.1
1474475395731968794,400,1474475395734396934,sparus2,-0.0052827806418,0.0513604072851,0.974436141751,0.218651335331,0.1,0.0,0.0,0.0,0.1,0.0,0.0,0.0,0.1,0.0628718644675,-0.0449876659792,0.105823290304,0.1,0.0,0.0,0.0,0.1,0.0,0.0,0.0,0.1,0.300920236639,-0.832054146633,-9.71929270762,0.1,0.0,0.0,0.0,0.1,0.0,0.0,0.0,0.1
1474475395832530190,401,1474475395836683034,sparus2,-0.000534062919915,0.0534100401077,0.974939430844,0.215963396386,0.1,0.0,0.0,0.0,0.1,0.0,0.0,0.0,0.1,0.0655107989329,-0.0793451859869,0.0976364238806,0.1,0.0,0.0,0.0,0.1,0.0,0.0,0.0,0.1,0.323288582301,-0.883267168352,-9.83677832863,0.1,0.0,0.0,0.0,0.1,0.0,0.0,0.0,0.1
1474475395933124621,402,1474475395934442043,sparus2,0.00465604694953,0.054966134464,0.975361083423,0.213606653062,0.1,0.0,0.0,0.0,0.1,0.0,0.0,0.0,0.1,0.0557261559957,-0.0949363598521,0.0764730533259,0.1,0.0,0.0,0.0,0.1,0.0,0.0,0.0,0.1,0.283098647534,-1.00602727323,-10.0104261035,0.1,0.0,0.0,0.0,0.1,0.0,0.0,0.0,0.1
1474475396023686742,403,1474475396031804084,sparus2,0.00930475462477,0.0554950010803,0.97557842882,0.212321585379,0.1,0.0,0.0,0.0,0.1,0.0,0.0,0.0,0.1,0.0325385833758,-0.0908106335655,0.0550375521324,0.1,0.0,0.0,0.0,0.1,0.0,0.0,0.0,0.1,0.217049165774,-1.08660760429,-10.2079077568,0.1,0.0,0.0,0.0,0.1,0.0,0.0,0.0,0.1
1474475396134500035,404,1474475396135009050,sparus2,0.012477509283,0.0550625592762,0.97562452243,0.212059467038,0.1,0.0,0.0,0.0,0.1,0.0,0.0,0.0,0.1,0.00654311263735,-0.0629620425606,0.029088990861,0.1,0.0,0.0,0.0,0.1,0.0,0.0,0.0,0.1,0.150322546892,-1.10273391723,-10.3267417099,0.1,0.0,0.0,0.0,0.1,0.0,0.0,0.0,0.1
1474475396225025130,405,1474475396232203960,sparus2,0.0129651232776,0.0537244202272,0.975526457556,0.212823219732,0.1,0.0,0.0,0.0,0.1,0.0,0.0,0.0,0.1,-0.0226794040844,-0.0176152677471,0.00737380703176,0.1,0.0,0.0,0.0,0.1,0.0,0.0,0.0,0.1,0.116067247557,-1.06252766278,-10.3036401937,0.1,0.0,0.0,0.0,0.1,0.0,0.0,0.0,0.1
1474475396325526168,406,1474475396330050945,sparus2,0.0107488010992,0.0516918612643,0.975538673102,0.213393327064,0.1,0.0,0.0,0.0,0.1,0.0,0.0,0.0,0.1,-0.0460041581509,0.0340462454413,0.0056102835486,0.1,0.0,0.0,0.0,0.1,0.0,0.0,0.0,0.1,0.11761436187,-0.90876045757,-10.1933007278,0.1,0.0,0.0,0.0,0.1,0.0,0.0,0.0,0.1
1474475396426115093,407,1474475396432893991,sparus2,0.00620638923304,0.0488715869936,0.975839584445,0.212861819373,0.1,0.0,0.0,0.0,0.1,0.0,0.0,0.0,0.1,-0.0681403603738,0.0751908061978,0.0259097731249,0.1,0.0,0.0,0.0,0.1,0.0,0.0,0.0,0.1,0.159379659864,-0.793676304338,-10.0039576279,0.1,0.0,0.0,0.0,0.1,0.0,0.0,0.0,0.1
1474475396526707430,408,1474475396531380891,sparus2,0.000582965641181,0.0468854398661,0.976213939509,0.211678435342,0.1,0.0,0.0,0.0,0.1,0.0,0.0,0.0,0.1,-0.0612676576754,0.105849702658,0.0659564620793,0.1,0.0,0.0,0.0,0.1,0.0,0.0,0.0,0.1,0.237517958385,-0.83121055025,-9.79878911741,0.1,0.0,0.0,0.0,0.1,0.0,0.0,0.0,0.1
1474475396627260478,409,1474475396627307891,sparus2,-0.00452523383883,0.0462510423066,0.976647364733,0.209762456851,0.1,0.0,0.0,0.0,0.1,0.0,0.0,0.0,0.1,-0.0414418321433,0.103372884917,0.0920164900442,0.1,0.0,0.0,0.0,0.1,0.0,0.0,0.0,0.1,0.338319508955,-0.927870778413,-9.61696851106,0.1,0.0,0.0,0.0,0.1,0.0,0.0,0.0,0.1
1474475396717776258,410,1474475396725325107,sparus2,-0.00847823055698,0.0466612391,0.977127713924,0.20729756162,0.1,0.0,0.0,0.0,0.1,0.0,0.0,0.0,0.1,-0.0220649437164,0.0827148839148,0.113606515967,0.1,0.0,0.0,0.0,0.1,0.0,0.0,0.0,0.1,0.448541177339,-1.02236788011,-9.54483721278,0.1,0.0,0.0,0.0,0.1,0.0,0.0,0.0,0.1
1474475396818378858,411,1474475396827940940,sparus2,-0.0106271331016,0.0475681049012,0.97798829206,0.202887259412,0.1,0.0,0.0,0.0,0.1,0.0,0.0,0.0,0.1,0.000559044121468,0.0474752137114,0.118067788368,0.1,0.0,0.0,0.0,0.1,0.0,0.0,0.0,0.1,0.533204958589,-1.04233969448,-9.49643713876,0.1,0.0,0.0,0.0,0.1,0.0,0.0,0.0,0.1
1474475396928999293,412,1474475396926233053,sparus2,-0.010606152669,0.0482758748992,0.978697431789,0.199269381589,0.1,0.0,0.0,0.0,0.1,0.0,0.0,0.0,0.1,0.00768114239402,0.00470091006754,0.107288823667,0.1,0.0,0.0,0.0,0.1,0.0,0.0,0.0,0.1,0.531803209537,-1.00234193022,-9.50418557042,0.1,0.0,0.0,0.0,0.1,0.0,0.0,0.0,0.1
1474475397019527223,413,1474475397025466918,sparus2,-0.00929773035887,0.0478447300921,0.979302359341,0.196446743423,0.1,0.0,0.0,0.0,0.1,0.0,0.0,0.0,0.1,-0.00761401670367,-0.0248896905824,0.0869273009448,0.1,0.0,0.0,0.0,0.1,0.0,0.0,0.0,0.1,0.444585268079,-0.942585659582,-9.48973592338,0.1,0.0,0.0,0.0,0.1,0.0,0.0,0.0,0.1
1474475397120064179,414,1474475397127569913,sparus2,-0.00778219826027,0.0456850531727,0.979895258839,0.194055649266,0.1,0.0,0.0,0.0,0.1,0.0,0.0,0.0,0.1,-0.036209476458,-0.0343017333119,0.0713543522991,0.1,0.0,0.0,0.0,0.1,0.0,0.0,0.0,0.1,0.350772873644,-0.787600461577,-9.48295259369,0.1,0.0,0.0,0.0,0.1,0.0,0.0,0.0,0.1
1474475397220668430,415,1474475397226449966,sparus2,-0.00688605422182,0.0429801404224,0.980381001398,0.192245629037,0.1,0.0,0.0,0.0,0.1,0.0,0.0,0.0,0.1,-0.0466936447056,-0.0236618407071,0.0551992947094,0.1,0.0,0.0,0.0,0.1,0.0,0.0,0.0,0.1,0.220149113349,-0.609236713111,-9.5394707263,0.1,0.0,0.0,0.0,0.1,0.0,0.0,0.0,0.1
1474475397311196683,416,1474475397320960044,sparus2,-0.00743135960192,0.0402965633416,0.980802988397,0.190647475275,0.1,0.0,0.0,0.0,0.1,0.0,0.0,0.0,0.1,-0.0426246089263,0.0070337381191,0.0645834035578,0.1,0.0,0.0,0.0,0.1,0.0,0.0,0.0,0.1,0.237808688909,-0.443680611314,-9.59360704874,0.1,0.0,0.0,0.0,0.1,0.0,0.0,0.0,0.1
1474475397411795474,417,1474475397418422937,sparus2,-0.00892068611305,0.0393585947749,0.981166495685,0.188901112019,0.1,0.0,0.0,0.0,0.1,0.0,0.0,0.0,0.1,-0.0115976742964,0.0360742083534,0.0676495142944,0.1,0.0,0.0,0.0,0.1,0.0,0.0,0.0,0.1,0.208835324165,-0.45072145677,-9.68825808136,0.1,0.0,0.0,0.0,0.1,0.0,0.0,0.0,0.1
1474475397512350726,418,1474475397520715951,sparus2,-0.0110954892577,0.0404553751174,0.981505435844,0.186781509125,0.1,0.0,0.0,0.0,0.1,0.0,0.0,0.0,0.1,0.0234703824711,0.0562972947776,0.0755844558422,0.1,0.0,0.0,0.0,0.1,0.0,0.0,0.0,0.1,0.245562306515,-0.49843775665,-9.75057394686,0.1,0.0,0.0,0.0,0.1,0.0,0.0,0.0,0.1
1474475397612937169,419,1474475397618237972,sparus2,-0.0130347071427,0.042790172126,0.981783485309,0.184662626305,0.1,0.0,0.0,0.0,0.1,0.0,0.0,0.0,0.1,0.0457340756754,0.0615133520062,0.0820802502515,0.1,0.0,0.0,0.0,0.1,0.0,0.0,0.0,0.1,0.250663873458,-0.61826514321,-9.78223832622,0.1,0.0,0.0,0.0,0.1,0.0,0.0,0.0,0.1
1474475397713481625,420,1474475397715636014,sparus2,-0.014609494105,0.045409211759,0.981863019251,0.183492718105,0.1,0.0,0.0,0.0,0.1,0.0,0.0,0.0,0.1,0.0531735301759,0.0511858939531,0.0657628926159,0.1,0.0,0.0,0.0,0.1,0.0,0.0,0.0,0.1,0.358932795036,-0.664898921888,-9.79630469812,0.1,0.0,0.0,0.0,0.1,0.0,0.0,0.0,0.1
1474475397814068061,421,1474475397818226099,sparus2,-0.0152216771371,0.0479730511723,0.981880332408,0.182696195192,0.1,0.0,0.0,0.0,0.1,0.0,0.0,0.0,0.1,0.0515858584451,0.0289033356296,0.0539714448323,0.1,0.0,0.0,0.0,0.1,0.0,0.0,0.0,0.1,0.391734023356,-0.737663997843,-9.74891071571,0.1,0.0,0.0,0.0,0.1,0.0,0.0,0.0,0.1
1474475397914640979,422,1474475397914865016,sparus2,-0.014586917761,0.049780728249,0.981847158143,0.182442481269,0.1,0.0,0.0,0.0,0.1,0.0,0.0,0.0,0.1,0.0452614675465,0.00119631479892,0.0442121585897,0.1,0.0,0.0,0.0,0.1,0.0,0.0,0.0,0.1,0.397356432824,-0.760525946559,-9.75673441507,0.1,0.0,0.0,0.0,0.1,0.0,0.0,0.0,0.1
1474475398005186526,423,1474475398012320995,sparus2,-0.0122283767182,0.051473708049,0.981801698951,0.182390647018,0.1,0.0,0.0,0.0,0.1,0.0,0.0,0.0,0.1,0.0489447237579,-0.035576033258,0.0414830966753,0.1,0.0,0.0,0.0,0.1,0.0,0.0,0.0,0.1,0.385718817046,-0.811743786082,-9.77277193554,0.1,0.0,0.0,0.0,0.1,0.0,0.0,0.0,0.1
1474475398105772992,424,1474475398109445095,sparus2,-0.00892619499888,0.0533444415537,0.981846200418,0.181804104251,0.1,0.0,0.0,0.0,0.1,0.0,0.0,0.0,0.1,0.0573283999316,-0.0548565861385,0.0505109737607,0.1,0.0,0.0,0.0,0.1,0.0,0.0,0.0,0.1,0.350476060941,-0.8362996613,-9.7263430101,0.1,0.0,0.0,0.0,0.1,0.0,0.0,0.0,0.1
1474475398206380791,425,1474475398212258100,sparus2,-0.00458035373354,0.0556410128153,0.981953961807,0.180691767781,0.1,0.0,0.0,0.0,0.1,0.0,0.0,0.0,0.1,0.067908129952,-0.0714443940266,0.0604903403251,0.1,0.0,0.0,0.0,0.1,0.0,0.0,0.0,0.1,0.307605826598,-0.862686850549,-9.68004412523,0.1,0.0,0.0,0.0,0.1,0.0,0.0,0.0,0.1
1474475398307051439,426,1474475398309643983,sparus2,-0.000870567990963,0.0579570967757,0.98205416747,0.179470970356,0.1,0.0,0.0,0.0,0.1,0.0,0.0,0.0,0.1,0.0654892241018,-0.064425733786,0.0700070549421,0.1,0.0,0.0,0.0,0.1,0.0,0.0,0.0,0.1,0.29864366324,-0.993923919481,-9.6727405432,0.1,0.0,0.0,0.0,0.1,0.0,0.0,0.0,0.1
1474475398407643163,427,1474475398408001899,sparus2,0.00173246212036,0.0595131114574,0.982124374766,0.178569036032,0.1,0.0,0.0,0.0,0.1,0.0,0.0,0.0,0.1,0.0458129574593,-0.0447468741857,0.0619774075983,0.1,0.0,0.0,0.0,0.1,0.0,0.0,0.0,0.1,0.255945136755,-1.04460145637,-9.76774746452,0.1,0.0,0.0,0.0,0.1,0.0,0.0,0.0,0.1
1474475398508352357,428,1474475398511518955,sparus2,0.00146178105977,0.0600015460869,0.982170628421,0.178153120462,0.1,0.0,0.0,0.0,0.1,0.0,0.0,0.0,0.1,0.011634485378,0.0083864755258,0.0471807659408,0.1,0.0,0.0,0.0,0.1,0.0,0.0,0.0,0.1,0.255431047703,-1.10130842018,-9.88562320727,0.1,0.0,0.0,0.0,0.1,0.0,0.0,0.0,0.1
1474475398598960215,429,1474475398608084917,sparus2,-0.00228570481794,0.0593231801457,0.982363000998,0.177308967964,0.1,0.0,0.0,0.0,0.1,0.0,0.0,0.0,0.1,-0.0239315643714,0.0755405889694,0.0299050388148,0.1,0.0,0.0,0.0,0.1,0.0,0.0,0.0,0.1,0.27559921498,-1.00783488637,-10.0184003833,0.1,0.0,0.0,0.0,0.1,0.0,0.0,0.0,0.1
1474475398699614482,430,1474475398706140995,sparus2,-0.00891469935814,0.0581758360652,0.982532676525,0.176537927355,0.1,0.0,0.0,0.0,0.1,0.0,0.0,0.0,0.1,-0.0437856317665,0.133752330949,0.0238616907176,0.1,0.0,0.0,0.0,0.1,0.0,0.0,0.0,0.1,0.28996460514,-0.964079690496,-10.0572656905,0.1,0.0,0.0,0.0,0.1,0.0,0.0,0.0,0.1
1474475398800247881,431,1474475398805089950,sparus2,-0.0170755666957,0.0571820397817,0.982687441336,0.175396784434,0.1,0.0,0.0,0.0,0.1,0.0,0.0,0.0,0.1,-0.0444787128688,0.167880827992,0.0255933897293,0.1,0.0,0.0,0.0,0.1,0.0,0.0,0.0,0.1,0.325472112403,-0.84260577921,-10.0641654576,0.1,0.0,0.0,0.0,0.1,0.0,0.0,0.0,0.1
1474475398900840196,432,1474475398906536102,sparus2,-0.0249020211071,0.0564103007362,0.982933868526,0.173316985375,0.1,0.0,0.0,0.0,0.1,0.0,0.0,0.0,0.1,-0.0346866321279,0.150608159203,0.0441541912305,0.1,0.0,0.0,0.0,0.1,0.0,0.0,0.0,0.1,0.715801434193,-0.660061482811,-9.97093194774,0.1,0.0,0.0,0.0,0.1,0.0,0.0,0.0,0.1
1474475399001426177,433,1474475399004457950,sparus2,-0.0282803621295,0.0581835511539,0.982875393561,0.17254233169,0.1,0.0,0.0,0.0,0.1,0.0,0.0,0.0,0.1,0.0142783987136,0.0897179418923,0.0534506836749,0.1,0.0,0.0,0.0,0.1,0.0,0.0,0.0,0.1,0.562135695682,-1.14056280722,-9.81011770044,0.1,0.0,0.0,0.0,0.1,0.0,0.0,0.0,0.1
1474475399102056850,434,1474475399101838111,sparus2,-0.0269669043239,0.0590998638,0.983084786325,0.171243379626,0.1,0.0,0.0,0.0,0.1,0.0,0.0,0.0,0.1,0.0143933981438,0.00634232299782,0.05589696729,0.1,0.0,0.0,0.0,0.1,0.0,0.0,0.0,0.1,0.260874995839,-1.14013849529,-9.6581060377,0.1,0.0,0.0,0.0,0.1,0.0,0.0,0.0,0.1
1474475399202665773,435,1474475399206515073,sparus2,-0.0240133219664,0.0580174793047,0.983591024593,0.169133168845,0.1,0.0,0.0,0.0,0.1,0.0,0.0,0.0,0.1,0.00208304514177,-0.0614461531757,0.045471136375,0.1,0.0,0.0,0.0,0.1,0.0,0.0,0.0,0.1,0.759854072189,-0.422523808451,-8.80038140473,0.1,0.0,0.0,0.0,0.1,0.0,0.0,0.0,0.1
1474475399293218402,436,1474475399302006959,sparus2,-0.0181512146943,0.0576746757086,0.983729721832,0.169174464893,0.1,0.0,0.0,0.0,0.1,0.0,0.0,0.0,0.1,-0.0026995064227,-0.108596930641,0.028856936541,0.1,0.0,0.0,0.0,0.1,0.0,0.0,0.0,0.1,0.134314258776,-1.54139790181,-9.36322110016,0.1,0.0,0.0,0.0,0.1,0.0,0.0,0.0,0.1
1474475399393802109,437,1474475399400844097,sparus2,-0.0119069566054,0.0581665544801,0.98350482818,0.170859969775,0.1,0.0,0.0,0.0,0.1,0.0,0.0,0.0,0.1,0.00638492311232,-0.120831557072,0.0108461698676,0.1,0.0,0.0,0.0,0.1,0.0,0.0,0.0,0.1,0.446570802891,-2.0560022589,-10.0187764968,0.1,0.0,0.0,0.0,0.1,0.0,0.0,0.0,0.1
1474475399494366909,438,1474475399499131917,sparus2,-0.0069945139188,0.0580356884862,0.98322778662,0.17276010898,0.1,0.0,0.0,0.0,0.1,0.0,0.0,0.0,0.1,0.0137158473401,-0.108612330138,-0.0118185468788,0.1,0.0,0.0,0.0,0.1,0.0,0.0,0.0,0.1,0.696021579831,-1.14890681342,-9.97273184106,0.1,0.0,0.0,0.0,0.1,0.0,0.0,0.0,0.1
1474475399594985090,439,1474475399601530075,sparus2,-0.00284854648363,0.0566202493978,0.982884948505,0.175280378658,0.1,0.0,0.0,0.0,0.1,0.0,0.0,0.0,0.1,-0.0032401074939,-0.0982729148271,-0.018747414943,0.1,0.0,0.0,0.0,0.1,0.0,0.0,0.0,0.1,0.536254653249,-0.896681402518,-9.83334250059,0.1,0.0,0.0,0.0,0.1,0.0,0.0,0.0,0.1
1474475399695575711,440,1474475399700337886,sparus2,0.000786790735982,0.0555908636482,0.982711918787,0.176596493492,0.1,0.0,0.0,0.0,0.1,0.0,0.0,0.0,0.1,-0.00615450344252,-0.0832910601447,-0.00364899958541,0.1,0.0,0.0,0.0,0.1,0.0,0.0,0.0,0.1,0.461210946586,-1.06027996617,-10.2273818299,0.1,0.0,0.0,0.0,0.1,0.0,0.0,0.0,0.1
1474475399796231120,441,1474475399797373056,sparus2,0.00552284565576,0.0549104707289,0.982892414109,0.175718071543,0.1,0.0,0.0,0.0,0.1,0.0,0.0,0.0,0.1,0.00866399704075,-0.0760239007469,0.023202556285,0.1,0.0,0.0,0.0,0.1,0.0,0.0,0.0,0.1,-0.665452204865,-0.854109457653,-9.52328113132,0.1,0.0,0.0,0.0,0.1,0.0,0.0,0.0,0.1
1474475399896949508,442,1474475399899276971,sparus2,0.0075768073069,0.0558976566183,0.983182441077,0.173696089577,0.1,0.0,0.0,0.0,0.1,0.0,0.0,0.0,0.1,0.0470880990534,-0.0440756418238,0.0425402539323,0.1,0.0,0.0,0.0,0.1,0.0,0.0,0.0,0.1,0.465126442575,-0.30095755141,-10.2642556737,0.1,0.0,0.0,0.0,0.1,0.0,0.0,0.0,0.1
1474475399997498328,443,1474475400001049041,sparus2,0.00813231562045,0.0594011944583,0.983023769143,0.173405976944,0.1,0.0,0.0,0.0,0.1,0.0,0.0,0.0,0.1,0.0737611739252,-0.00329470734836,0.056216405831,0.1,0.0,0.0,0.0,0.1,0.0,0.0,0.0,0.1,0.250398451007,-1.09427239253,-9.68952407412,0.1,0.0,0.0,0.0,0.1,0.0,0.0,0.0,0.1
1474475400088073460,444,1474475400094666957,sparus2,0.00804024787511,0.0636896064101,0.982615915372,0.174198023256,0.1,0.0,0.0,0.0,0.1,0.0,0.0,0.0,0.1,0.0807120776684,0.00200268654299,0.0572708722162,0.1,0.0,0.0,0.0,0.1,0.0,0.0,0.0,0.1,0.493290704314,-1.42336618872,-9.8356351698,0.1,0.0,0.0,0.0,0.1,0.0,0.0,0.0,0.1
1474475400198718906,445,1474475400198585987,sparus2,0.00803225784257,0.0687381298527,0.982154159972,0.174882127128,0.1,0.0,0.0,0.0,0.1,0.0,0.0,0.0,0.1,0.0965194594203,0.0115283495668,0.0394310229083,0.1,0.0,0.0,0.0,0.1,0.0,0.0,0.0,0.1,0.311561064563,-1.32155828432,-9.60290200415,0.1,0.0,0.0,0.0,0.1,0.0,0.0,0.0,0.1
1474475400289270697,446,1474475400295289039,sparus2,0.00793527531535,0.0735730913603,0.981364336017,0.177336041535,0.1,0.0,0.0,0.0,0.1,0.0,0.0,0.0,0.1,0.0993665513309,0.00643246836241,0.00886417402946,0.1,0.0,0.0,0.0,0.1,0.0,0.0,0.0,0.1,0.426259484732,-1.39887216869,-9.56203131527,0.1,0.0,0.0,0.0,0.1,0.0,0.0,0.0,0.1
1474475400389926244,447,1474475400393753051,sparus2,0.00880568210545,0.077856439578,0.98039843869,0.180775374961,0.1,0.0,0.0,0.0,0.1,0.0,0.0,0.0,0.1,0.0912389051075,-0.00435149014473,-0.0227412595218,0.1,0.0,0.0,0.0,0.1,0.0,0.0,0.0,0.1,0.186483318723,-1.47261281295,-9.60540011666,0.1,0.0,0.0,0.0,0.1,0.0,0.0,0.0,0.1
1474475400490556845,448,1474475400490250110,sparus2,0.00943597130959,0.0814598833731,0.979297507487,0.185071990522,0.1,0.0,0.0,0.0,0.1,0.0,0.0,0.0,0.1,0.0866655399839,-0.00829465603685,-0.0503555531668,0.1,0.0,0.0,0.0,0.1,0.0,0.0,0.0,0.1,0.258205625599,-1.39895000509,-9.64323879247,0.1,0.0,0.0,0.0,0.1,0.0,0.0,0.0,0.1
1474475400591700129,449,1474475400593556880,sparus2,0.00890032974481,0.0842869981253,0.977971988001,0.190754493429,0.1,0.0,0.0,0.0,0.1,0.0,0.0,0.0,0.1,0.0632064964147,-0.0032643312839,-0.0679765996324,0.1,0.0,0.0,0.0,0.1,0.0,0.0,0.0,0.1,0.564787075051,-1.45458177925,-9.80317680871,0.1,0.0,0.0,0.0,0.1,0.0,0.0,0.0,0.1
1474475400692466946,450,1474475400690886974,sparus2,0.0083388565073,0.086153583936,0.97683461812,0.195709356675,0.1,0.0,0.0,0.0,0.1,0.0,0.0,0.0,0.1,0.0446460593822,0.00488152860537,-0.0625574428731,0.1,0.0,0.0,0.0,0.1,0.0,0.0,0.0,0.1,0.395572144973,-1.55174355794,-9.86900376996,0.1,0.0,0.0,0.0,0.1,0.0,0.0,0.0,0.1
1474475400782980537,451,1474475400789371967,sparus2,0.00750755170518,0.0884127234289,0.975877598296,0.199473657779,0.1,0.0,0.0,0.0,0.1,0.0,0.0,0.0,0.1,0.0454909329018,0.017730880866,-0.0587660163442,0.1,0.0,0.0,0.0,0.1,0.0,0.0,0.0,0.1,0.383632869336,-1.63530691096,-9.88514394457,0.1,0.0,0.0,0.0,0.1,0.0,0.0,0.0,0.1
1474475400883574138,452,1474475400892318964,sparus2,0.00616150514955,0.0905494339116,0.974854999237,0.203520432231,0.1,0.0,0.0,0.0,0.1,0.0,0.0,0.0,0.1,0.0461066994269,0.0334312649046,-0.0541539512301,0.1,0.0,0.0,0.0,0.1,0.0,0.0,0.0,0.1,0.217412371113,-1.58640113698,-9.81709187565,0.1,0.0,0.0,0.0,0.1,0.0,0.0,0.0,0.1
1474475400984202493,453,1474475400990235090,sparus2,0.00439176681452,0.0924800292441,0.974097038486,0.20630830373,0.1,0.0,0.0,0.0,0.1,0.0,0.0,0.0,0.1,0.0415440155515,0.0361716527039,-0.0488842953311,0.1,0.0,0.0,0.0,0.1,0.0,0.0,0.0,0.1,0.45924402154,-1.47202280447,-9.99326596405,0.1,0.0,0.0,0.0,0.1,0.0,0.0,0.0,0.1
1474475401084760051,454,1474475401087474107,sparus2,0.00267359920955,0.0945082368869,0.973402684679,0.208682194945,0.1,0.0,0.0,0.0,0.1,0.0,0.0,0.0,0.1,0.0415323356412,0.0388780568694,-0.0382320230148,0.1,0.0,0.0,0.0,0.1,0.0,0.0,0.0,0.1,0.436519787739,-1.58232404227,-9.94689176648,0.1,0.0,0.0,0.0,0.1,0.0,0.0,0.0,0.1
1474475401185327316,455,1474475401186340093,sparus2,0.00110022163512,0.0961274058179,0.972815156145,0.210686932054,0.1,0.0,0.0,0.0,0.1,0.0,0.0,0.0,0.1,0.0354368462727,0.0332350197769,-0.0306202734116,0.1,0.0,0.0,0.0,0.1,0.0,0.0,0.0,0.1,0.516420570607,-1.51469547914,-9.90615116319,0.1,0.0,0.0,0.0,0.1,0.0,0.0,0.0,0.1
1474475401285928784,456,1474475401288049936,sparus2,-0.000868332070833,0.0971594169006,0.972357570041,0.212320629453,0.1,0.0,0.0,0.0,0.1,0.0,0.0,0.0,0.1,0.0148948678991,0.0416245938136,-0.0191508545609,0.1,0.0,0.0,0.0,0.1,0.0,0.0,0.0,0.1,0.446852873626,-1.76534295425,-9.86881206488,0.1,0.0,0.0,0.0,0.1,0.0,0.0,0.0,0.1
1474475401386510470,457,1474475401385823965,sparus2,-0.0025337261047,0.0977153173769,0.971727379807,0.214921372401,0.1,0.0,0.0,0.0,0.1,0.0,0.0,0.0,0.1,-0.00410956763721,0.0365896739936,-0.00688649999124,0.1,0.0,0.0,0.0,0.1,0.0,0.0,0.0,0.1,0.519090504576,-1.95745023558,-9.50727888794,0.1,0.0,0.0,0.0,0.1,0.0,0.0,0.0,0.1
1474475401477672875,458,1474475401483453989,sparus2,-0.00417429449099,0.0969295877946,0.971247790847,0.217405057557,0.1,0.0,0.0,0.0,0.1,0.0,0.0,0.0,0.1,-0.0300302002791,0.0291498167,-0.00426254321925,0.1,0.0,0.0,0.0,0.1,0.0,0.0,0.0,0.1,0.570312829087,-1.90477547844,-9.46705160038,0.1,0.0,0.0,0.0,0.1,0.0,0.0,0.0,0.1
1474475401588357815,459,1474475401586852073,sparus2,-0.00586824811858,0.0955267688815,0.970531153322,0.22115487904,0.1,0.0,0.0,0.0,0.1,0.0,0.0,0.0,0.1,-0.0559105673201,0.0262687502928,-0.0163656440888,0.1,0.0,0.0,0.0,0.1,0.0,0.0,0.0,0.1,0.600112872077,-2.16386658111,-9.45950158539,0.1,0.0,0.0,0.0,0.1,0.0,0.0,0.0,0.1
1474475401678849729,460,1474475401683702945,sparus2,-0.00764615338917,0.0929916181053,0.970007305882,0.224454721126,0.1,0.0,0.0,0.0,0.1,0.0,0.0,0.0,0.1,-0.0673059417321,0.021216211943,-0.0438277765447,0.1,0.0,0.0,0.0,0.1,0.0,0.0,0.0,0.1,0.606008692491,-1.99293985947,-9.37257848961,0.1,0.0,0.0,0.0,0.1,0.0,0.0,0.0,0.1
1474475401779452103,461,1474475401781394004,sparus2,-0.00941220349201,0.0895112960067,0.969290571173,0.228855690224,0.1,0.0,0.0,0.0,0.1,0.0,0.0,0.0,0.1,-0.0872833352361,0.0138607708565,-0.0637653761627,0.1,0.0,0.0,0.0,0.1,0.0,0.0,0.0,0.1,0.662679812295,-1.99544886366,-9.34812179474,0.1,0.0,0.0,0.0,0.1,0.0,0.0,0.0,0.1
1474475401880071454,462,1474475401878748893,sparus2,-0.0108966758561,0.0842781682891,0.968417815523,0.234404324583,0.1,0.0,0.0,0.0,0.1,0.0,0.0,0.0,0.1,-0.106387596288,0.00185130425846,-0.0872354009286,0.1,0.0,0.0,0.0,0.1,0.0,0.0,0.0,0.1,0.562264976388,-1.46301615933,-9.53646582964,0.1,0.0,0.0,0.0,0.1,0.0,0.0,0.0,0.1
1474475401980618663,463,1474475401981542110,sparus2,-0.0124065165935,0.0784865855048,0.967541354837,0.239895103996,0.1,0.0,0.0,0.0,0.1,0.0,0.0,0.0,0.1,-0.11590484787,-0.00202095767675,-0.0952222866511,0.1,0.0,0.0,0.0,0.1,0.0,0.0,0.0,0.1,0.524211968707,-1.44783498006,-9.41149870475,0.1,0.0,0.0,0.0,0.1,0.0,0.0,0.0,0.1
1474475402071176131,464,1474475402079837083,sparus2,-0.0130837277295,0.0724842825002,0.966595078713,0.245497044112,0.1,0.0,0.0,0.0,0.1,0.0,0.0,0.0,0.1,-0.110319127578,-0.0194963091546,-0.0953591325574,0.1,0.0,0.0,0.0,0.1,0.0,0.0,0.0,0.1,0.560427439615,-1.11655687025,-9.57468102398,0.1,0.0,0.0,0.0,0.1,0.0,0.0,0.0,0.1
1474475402171733681,465,1474475402176542043,sparus2,-0.0134075837593,0.0669855138102,0.965946090374,0.249562273046,0.1,0.0,0.0,0.0,0.1,0.0,0.0,0.0,0.1,-0.101237821161,-0.0192354228261,-0.0833782972555,0.1,0.0,0.0,0.0,0.1,0.0,0.0,0.0,0.1,0.303636410393,-0.863421578096,-9.43687271034,0.1,0.0,0.0,0.0,0.1,0.0,0.0,0.0,0.1
1474475402272257373,466,1474475402279196023,sparus2,-0.0132585056925,0.0619742580149,0.965357615151,0.253116728487,0.1,0.0,0.0,0.0,0.1,0.0,0.0,0.0,0.1,-0.0882646180054,-0.0259152021044,-0.0609535471815,0.1,0.0,0.0,0.0,0.1,0.0,0.0,0.0,0.1,0.379307873055,-0.909799464802,-9.43577761279,0.1,0.0,0.0,0.0,0.1,0.0,0.0,0.0,0.1
1474475402373077559,467,1474475402376677989,sparus2,-0.0130389736118,0.057805375063,0.964951394282,0.255650797876,0.1,0.0,0.0,0.0,0.1,0.0,0.0,0.0,0.1,-0.0597535728128,-0.0223973677379,-0.0360846576826,0.1,0.0,0.0,0.0,0.1,0.0,0.0,0.0,0.1,0.446838439722,-0.6356264161,-9.68493170907,0.1,0.0,0.0,0.0,0.1,0.0,0.0,0.0,0.1
1474475402473684950,468,1474475402473912954,sparus2,-0.0124198078339,0.0561574220847,0.964807692876,0.256589571273,0.1,0.0,0.0,0.0,0.1,0.0,0.0,0.0,0.1,-0.0171748088271,-0.0181009534303,-0.0124157064621,0.1,0.0,0.0,0.0,0.1,0.0,0.0,0.0,0.1,0.385143383011,-0.529210749964,-9.45807163403,0.1,0.0,0.0,0.0,0.1,0.0,0.0,0.0,0.1
1474475402574705055,469,1474475402577318906,sparus2,-0.0107379048423,0.0566565233341,0.964518392939,0.257641233978,0.1,0.0,0.0,0.0,0.1,0.0,0.0,0.0,0.1,0.0255207345156,-0.0294072585592,-0.00362894778235,0.1,0.0,0.0,0.0,0.1,0.0,0.0,0.0,0.1,0.508953507663,-0.676965495403,-9.43295784463,0.1,0.0,0.0,0.0,0.1,0.0,0.0,0.0,0.1
1474475402665356171,470,1474475402673787117,sparus2,-0.00775216905171,0.0583961430435,0.9638517288,0.259845414126,0.1,0.0,0.0,0.0,0.1,0.0,0.0,0.0,0.1,0.068283460484,-0.0422470234706,-0.0204864281214,0.1,0.0,0.0,0.0,0.1,0.0,0.0,0.0,0.1,0.299013058324,-0.751892711892,-9.78969924527,0.1,0.0,0.0,0.0,0.1,0.0,0.0,0.0,0.1
1474475402765897493,471,1474475402771562099,sparus2,-0.00373485672244,0.0619066953076,0.962463722836,0.26422943467,0.1,0.0,0.0,0.0,0.1,0.0,0.0,0.0,0.1,0.0894883672952,-0.0544182377254,-0.0483559178104,0.1,0.0,0.0,0.0,0.1,0.0,0.0,0.0,0.1,0.265729131204,-1.16314264934,-9.61886430192,0.1,0.0,0.0,0.0,0.1,0.0,0.0,0.0,0.1
1474475402866493854,472,1474475402869304895,sparus2,0.000201412069189,0.0658963100216,0.960346487205,0.270910059378,0.1,0.0,0.0,0.0,0.1,0.0,0.0,0.0,0.1,0.0978280766787,-0.0570342127907,-0.0951599093512,0.1,0.0,0.0,0.0,0.1,0.0,0.0,0.0,0.1,0.302447453765,-1.30772958351,-9.73639780419,0.1,0.0,0.0,0.0,0.1,0.0,0.0,0.0,0.1
1474475402967061797,473,1474475402971963882,sparus2,0.00307444205872,0.0694004436686,0.957889123326,0.278608244025,0.1,0.0,0.0,0.0,0.1,0.0,0.0,0.0,0.1,0.092630337041,-0.0402020158421,-0.125223720449,0.1,0.0,0.0,0.0,0.1,0.0,0.0,0.0,0.1,0.288277844513,-1.14177538441,-9.82243809234,0.1,0.0,0.0,0.0,0.1,0.0,0.0,0.0,0.1
1474475403067658386,474,1474475403070044994,sparus2,0.00546804556237,0.0737471667376,0.955585435268,0.285285702023,0.1,0.0,0.0,0.0,0.1,0.0,0.0,0.0,0.1,0.103545567735,-0.0320581069977,-0.121186712446,0.1,0.0,0.0,0.0,0.1,0.0,0.0,0.0,0.1,0.409742425518,-1.33860854379,-9.91520689229,0.1,0.0,0.0,0.0,0.1,0.0,0.0,0.0,0.1
1474475403158148568,475,1474475403167761087,sparus2,0.0078797638572,0.0777339293604,0.953321431556,0.291673779563,0.1,0.0,0.0,0.0,0.1,0.0,0.0,0.0,0.1,0.10472593626,-0.0317634995274,-0.101131722069,0.1,0.0,0.0,0.0,0.1,0.0,0.0,0.0,0.1,0.348768168104,-1.3209609443,-9.90045608443,0.1,0.0,0.0,0.0,0.1,0.0,0.0,0.0,0.1
1474475403268796723,476,1474475403270462989,sparus2,0.0115473459372,0.0828611256164,0.951341521645,0.29656365566,0.1,0.0,0.0,0.0,0.1,0.0,0.0,0.0,0.1,0.119265614473,-0.0452134776032,-0.0786222610943,0.1,0.0,0.0,0.0,0.1,0.0,0.0,0.0,0.1,0.314013521684,-1.57942175858,-9.90180432652,0.1,0.0,0.0,0.0,0.1,0.0,0.0,0.0,0.1
1474475403359334919,477,1474475403368622064,sparus2,0.0156897980197,0.0876384852662,0.949453060296,0.301018624729,0.1,0.0,0.0,0.0,0.1,0.0,0.0,0.0,0.1,0.123829049698,-0.0577200119902,-0.0748056713767,0.1,0.0,0.0,0.0,0.1,0.0,0.0,0.0,0.1,0.25793706181,-1.60909236167,-9.98127334987,0.1,0.0,0.0,0.0,0.1,0.0,0.0,0.0,0.1
1474475403459987297,478,1474475403466571092,sparus2,0.0200172446244,0.0927619750144,0.947362817734,0.305774782288,0.1,0.0,0.0,0.0,0.1,0.0,0.0,0.0,0.1,0.126813301078,-0.0612890112444,-0.0739006103852,0.1,0.0,0.0,0.0,0.1,0.0,0.0,0.0,0.1,0.339417383767,-1.94458264966,-10.0358817734,0.1,0.0,0.0,0.0,0.1,0.0,0.0,0.0,0.1
1474475403560587502,479,1474475403567186117,sparus2,0.0238542760527,0.0976711671101,0.945219060695,0.310567615712,0.1,0.0,0.0,0.0,0.1,0.0,0.0,0.0,0.1,0.116625345132,-0.0483702640066,-0.0783576751993,0.1,0.0,0.0,0.0,0.1,0.0,0.0,0.0,0.1,0.135721218215,-2.10641657227,-10.0083101816,0.1,0.0,0.0,0.0,0.1,0.0,0.0,0.0,0.1
1474475403661180735,480,1474475403667320013,sparus2,0.0260477984469,0.10107664063,0.942945689602,0.316162065049,0.1,0.0,0.0,0.0,0.1,0.0,0.0,0.0,0.1,0.0761118578006,-0.0323467037609,-0.0892097957848,0.1,0.0,0.0,0.0,0.1,0.0,0.0,0.0,0.1,0.370152561564,-2.21146820841,-9.97341523744,0.1,0.0,0.0,0.0,0.1,0.0,0.0,0.0,0.1
1474475403761817381,481,1474475403765713930,sparus2,0.0258848015569,0.101814280399,0.941244635155,0.320970973995,0.1,0.0,0.0,0.0,0.1,0.0,0.0,0.0,0.1,0.0197698753007,-0.0033631310214,-0.0879479338975,0.1,0.0,0.0,0.0,0.1,0.0,0.0,0.0,0.1,0.313301745407,-1.90245027762,-10.0440271734,0.1,0.0,0.0,0.0,0.1,0.0,0.0,0.0,0.1
1474475403862395407,482,1474475403864010095,sparus2,0.0241835139823,0.101717715825,0.939461974635,0.326312522214,0.1,0.0,0.0,0.0,0.1,0.0,0.0,0.0,0.1,-0.00189004331339,0.0218628644578,-0.0881679396686,0.1,0.0,0.0,0.0,0.1,0.0,0.0,0.0,0.1,0.282276708877,-1.83690449082,-9.62062991718,0.1,0.0,0.0,0.0,0.1,0.0,0.0,0.0,0.1
1474475403963016598,483,1474475403965776920,sparus2,0.0215048154908,0.10181058267,0.937452869409,0.33219612551,0.1,0.0,0.0,0.0,0.1,0.0,0.0,0.0,0.1,-0.0230241837882,0.0376895563663,-0.0796795595407,0.1,0.0,0.0,0.0,0.1,0.0,0.0,0.0,0.1,0.44066719448,-2.13760944784,-9.46987136854,0.1,0.0,0.0,0.0,0.1,0.0,0.0,0.0,0.1
1474475404063609827,484,1474475404063555002,sparus2,0.0190056855746,0.101378552658,0.93605249951,0.336402870289,0.1,0.0,0.0,0.0,0.1,0.0,0.0,0.0,0.1,-0.0231774863639,0.0435956506431,-0.0699152395704,0.1,0.0,0.0,0.0,0.1,0.0,0.0,0.0,0.1,0.269351882787,-1.92861781326,-9.464189983,0.1,0.0,0.0,0.0,0.1,0.0,0.0,0.0,0.1
1474475404154987806,485,1474475404161292076,sparus2,0.0164788779332,0.100304824108,0.935394935077,0.338679353186,0.1,0.0,0.0,0.0,0.1,0.0,0.0,0.0,0.1,-0.0227985456002,0.0373789702675,-0.0547189989825,0.1,0.0,0.0,0.0,0.1,0.0,0.0,0.0,0.1,0.313688460069,-1.46667780145,-10.0505506019,0.1,0.0,0.0,0.0,0.1,0.0,0.0,0.0,0.1
1474475404255595016,486,1474475404261137962,sparus2,0.0144436810849,0.0983809152702,0.934421356917,0.342007753311,0.1,0.0,0.0,0.0,0.1,0.0,0.0,0.0,0.1,-0.0520584288947,0.0193313863359,-0.0542603195892,0.1,0.0,0.0,0.0,0.1,0.0,0.0,0.0,0.1,0.514916447175,-2.07186594613,-10.0177087857,0.1,0.0,0.0,0.0,0.1,0.0,0.0,0.0,0.1
1474475404356185011,487,1474475404362102031,sparus2,0.0128281761812,0.093844554503,0.933453905887,0.345965956519,0.1,0.0,0.0,0.0,0.1,0.0,0.0,0.0,0.1,-0.0892409937785,-0.000335487504753,-0.0707381760071,0.1,0.0,0.0,0.0,0.1,0.0,0.0,0.0,0.1,0.293754217426,-1.73749151584,-9.80060941555,0.1,0.0,0.0,0.0,0.1,0.0,0.0,0.0,0.1
1474475404456766909,488,1474475404459582090,sparus2,0.0106836402938,0.0881037248005,0.931515092005,0.352708416221,0.1,0.0,0.0,0.0,0.1,0.0,0.0,0.0,0.1,-0.145863002897,-0.0159995456681,-0.0959957994388,0.1,0.0,0.0,0.0,0.1,0.0,0.0,0.0,0.1,0.648747068518,-2.07980069162,-9.7095385343,0.1,0.0,0.0,0.0,0.1,0.0,0.0,0.0,0.1
1474475404557301492,489,1474475404559222936,sparus2,0.00727929212791,0.0794338018131,0.92990420508,0.359047980651,0.1,0.0,0.0,0.0,0.1,0.0,0.0,0.0,0.1,-0.175908543898,-0.0147922097254,-0.124258955842,0.1,0.0,0.0,0.0,0.1,0.0,0.0,0.0,0.1,0.771313752598,-1.21170948901,-10.1913917882,0.1,0.0,0.0,0.0,0.1,0.0,0.0,0.0,0.1
1474475404657961772,490,1474475404660989046,sparus2,0.00468494951665,0.072544551122,0.927083043975,0.367739539518,0.1,0.0,0.0,0.0,0.1,0.0,0.0,0.0,0.1,-0.187180360813,-0.012419633122,-0.126287109994,0.1,0.0,0.0,0.0,0.1,0.0,0.0,0.0,0.1,0.566964415408,-2.15574513038,-9.52278935447,0.1,0.0,0.0,0.0,0.1,0.0,0.0,0.0,0.1
1474475404758566557,491,1474475404759912014,sparus2,0.00262311738022,0.0636410641731,0.925966205486,0.372195540683,0.1,0.0,0.0,0.0,0.1,0.0,0.0,0.0,0.1,-0.162838948947,-0.0143163417392,-0.108207187198,0.1,0.0,0.0,0.0,0.1,0.0,0.0,0.0,0.1,0.0343445416741,-0.839466874763,-9.59812414609,0.1,0.0,0.0,0.0,0.1,0.0,0.0,0.0,0.1
1474475404849140971,492,1474475404855673074,sparus2,0.00097520732215,0.0591432951465,0.924470353918,0.376637337948,0.1,0.0,0.0,0.0,0.1,0.0,0.0,0.0,0.1,-0.102591785873,-0.0104711585339,-0.0790908286955,0.1,0.0,0.0,0.0,0.1,0.0,0.0,0.0,0.1,0.558799754425,-1.18143750436,-9.51213241875,0.1,0.0,0.0,0.0,0.1,0.0,0.0,0.0,0.1
1474475404949979840,493,1474475404953107118,sparus2,0.000988158445745,0.0592858048148,0.9232716447,0.379544051441,0.1,0.0,0.0,0.0,0.1,0.0,0.0,0.0,0.1,-0.00627612995266,0.00753808540591,-0.0508688885165,0.1,0.0,0.0,0.0,0.1,0.0,0.0,0.0,0.1,0.0966608014089,-1.38901651155,-9.30060411884,0.1,0.0,0.0,0.0,0.1,0.0,0.0,0.0,0.1
1474475405050583676,494,1474475405057738065,sparus2,0.00182555250246,0.0615201637881,0.922810994512,0.38030488455,0.1,0.0,0.0,0.0,0.1,0.0,0.0,0.0,0.1,0.0772830913044,0.0140956634748,-0.0243385595332,0.1,0.0,0.0,0.0,0.1,0.0,0.0,0.0,0.1,0.150751889204,-0.561697482862,-9.92493354416,0.1,0.0,0.0,0.0,0.1,0.0,0.0,0.0,0.1
1474475405151188221,495,1474475405153026103,sparus2,0.00256293245842,0.067654470148,0.920414757282,0.38503633416,0.1,0.0,0.0,0.0,0.1,0.0,0.0,0.0,0.1,0.127729044014,0.00693151151648,-0.0420805855276,0.1,0.0,0.0,0.0,0.1,0.0,0.0,0.0,0.1,0.978693288256,-1.1372562903,-9.67776560376,0.1,0.0,0.0,0.0,0.1,0.0,0.0,0.0,0.1
1474475405241704121,496,1474475405251064062,sparus2,0.0051729376112,0.0729063672494,0.918614725582,0.388336050703,0.1,0.0,0.0,0.0,0.1,0.0,0.0,0.0,0.1,0.120340517713,-0.00831302080735,-0.0588070228323,0.1,0.0,0.0,0.0,0.1,0.0,0.0,0.0,0.1,0.343380555061,-1.28924900918,-9.08442251393,0.1,0.0,0.0,0.0,0.1,0.0,0.0,0.0,0.1
1474475405352712070,497,1474475405353745937,sparus2,0.0068797571515,0.0769505642189,0.915552843151,0.394707829929,0.1,0.0,0.0,0.0,0.1,0.0,0.0,0.0,0.1,0.113636920122,-0.0321070892348,-0.0912547829222,0.1,0.0,0.0,0.0,0.1,0.0,0.0,0.0,0.1,1.00994997987,-0.928087197958,-9.72370179831,0.1,0.0,0.0,0.0,0.1,0.0,0.0,0.0,0.1
1474475405443249674,498,1474475405450896024,sparus2,0.0101075952529,0.0797332771522,0.912702014858,0.400643823249,0.1,0.0,0.0,0.0,0.1,0.0,0.0,0.0,0.1,0.0949221643699,-0.0530013447747,-0.118711317813,0.1,0.0,0.0,0.0,0.1,0.0,0.0,0.0,0.1,0.733285852492,-1.09210657386,-10.5918176138,0.1,0.0,0.0,0.0,0.1,0.0,0.0,0.0,0.1
1474475405543852794,499,1474475405548130035,sparus2,0.0138500869262,0.0805597987191,0.909725624011,0.407084245506,0.1,0.0,0.0,0.0,0.1,0.0,0.0,0.0,0.1,0.0653443576569,-0.0759318686627,-0.138391449483,0.1,0.0,0.0,0.0,0.1,0.0,0.0,0.0,0.1,0.408320052817,-0.910718981655,-9.23130038491,0.1,0.0,0.0,0.0,0.1,0.0,0.0,0.0,0.1
1474475405644438961,500,1474475405650641918,sparus2,0.0169116491117,0.081132058499,0.905973637996,0.415142568841,0.1,0.0,0.0,0.0,0.1,0.0,0.0,0.0,0.1,0.0589919775187,-0.0812870554542,-0.129350417428,0.1,0.0,0.0,0.0,0.1,0.0,0.0,0.0,0.1,0.806802905758,-1.15439883958,-9.76693366751,0.1,0.0,0.0,0.0,0.1,0.0,0.0,0.0,0.1
1474475405745038239,501,1474475405748143911,sparus2,0.0208907142607,0.0822578211481,0.903561211151,0.419969482964,0.1,0.0,0.0,0.0,0.1,0.0,0.0,0.0,0.1,0.0815154741788,-0.0711191425971,-0.114909041621,0.1,0.0,0.0,0.0,0.1,0.0,0.0,0.0,0.1,0.148395779452,-0.764258691348,-10.2472864698,0.1,0.0,0.0,0.0,0.1,0.0,0.0,0.0,0.1
1474475405845625308,502,1474475405847240924,sparus2,0.0247064048946,0.0856825036892,0.900696781044,0.425198084116,0.1,0.0,0.0,0.0,0.1,0.0,0.0,0.0,0.1,0.101140350663,-0.0455075023253,-0.106464233892,0.1,0.0,0.0,0.0,0.1,0.0,0.0,0.0,0.1,0.133261807124,-1.69591252578,-10.4386620677,0.1,0.0,0.0,0.0,0.1,0.0,0.0,0.0,0.1
1474475405936306376,503,1474475405944811105,sparus2,0.0278782474201,0.0892535886556,0.898273155564,0.429373890946,0.1,0.0,0.0,0.0,0.1,0.0,0.0,0.0,0.1,0.109821874496,-0.0298792657179,-0.0948996813725,0.1,0.0,0.0,0.0,0.1,0.0,0.0,0.0,0.1,0.0122763127854,-1.32118771977,-10.0393383213,0.1,0.0,0.0,0.0,0.1,0.0,0.0,0.0,0.1
1474475406047019068,504,1474475406046849012,sparus2,0.0290764568555,0.0945064499048,0.894801620232,0.435377021686,0.1,0.0,0.0,0.0,0.1,0.0,0.0,0.0,0.1,0.103038252666,0.00379984270397,-0.0999543248529,0.1,0.0,0.0,0.0,0.1,0.0,0.0,0.0,0.1,0.86330495048,-2.09333977583,-10.2710179685,0.1,0.0,0.0,0.0,0.1,0.0,0.0,0.0,0.1
1474475406137555654,505,1474475406144481897,sparus2,0.0286078263744,0.0954818678913,0.892084860596,0.44073734431,0.1,0.0,0.0,0.0,0.1,0.0,0.0,0.0,0.1,0.0205434392853,0.00894653060502,-0.105276941453,0.1,0.0,0.0,0.0,0.1,0.0,0.0,0.0,0.1,0.339816934081,-1.80738243867,-10.0982319169,0.1,0.0,0.0,0.0,0.1,0.0,0.0,0.0,0.1
1474475406238140001,506,1474475406242350101,sparus2,0.026983060148,0.094140115101,0.889033961563,0.447245087598,0.1,0.0,0.0,0.0,0.1,0.0,0.0,0.0,0.1,-0.0391406458976,0.0096438986987,-0.10049161994,0.1,0.0,0.0,0.0,0.1,0.0,0.0,0.0,0.1,0.41700659085,-1.91763917656,-9.75990980191,0.1,0.0,0.0,0.0,0.1,0.0,0.0,0.0,0.1
1474475406338895637,507,1474475406346785068,sparus2,0.0247179540723,0.0898863666138,0.886064897252,0.454090807769,0.1,0.0,0.0,0.0,0.1,0.0,0.0,0.0,0.1,-0.0929104405393,-0.00787493808771,-0.0988766155398,0.1,0.0,0.0,0.0,0.1,0.0,0.0,0.0,0.1,0.479526056261,-1.83813173109,-9.81357384329,0.1,0.0,0.0,0.0,0.1,0.0,0.0,0.0,0.1
1474475406439399487,508,1474475406442591905,sparus2,0.0231272607928,0.0844676674498,0.88309783838,0.46094311017,0.1,0.0,0.0,0.0,0.1,0.0,0.0,0.0,0.1,-0.121569865216,-0.0355347037064,-0.101891383886,0.1,0.0,0.0,0.0,0.1,0.0,0.0,0.0,0.1,0.535858607504,-1.80841372623,-9.74979329832,0.1,0.0,0.0,0.0,0.1,0.0,0.0,0.0,0.1
1474475406540126440,509,1474475406540136098,sparus2,0.0219103041575,0.076938414521,0.880389286918,0.467456011217,0.1,0.0,0.0,0.0,0.1,0.0,0.0,0.0,0.1,-0.152944902844,-0.0603214963281,-0.0950827065547,0.1,0.0,0.0,0.0,0.1,0.0,0.0,0.0,0.1,0.46177792133,-1.63258268284,-9.77401049686,0.1,0.0,0.0,0.0,0.1,0.0,0.0,0.0,0.1
1474475406630641616,510,1474475406638324022,sparus2,0.0199077934284,0.0681364818857,0.877949950411,0.473460646908,0.1,0.0,0.0,0.0,0.1,0.0,0.0,0.0,0.1,-0.181266097419,-0.0574272602228,-0.0871193966375,0.1,0.0,0.0,0.0,0.1,0.0,0.0,0.0,0.1,0.406404577944,-1.43609540118,-9.76647431011,0.1,0.0,0.0,0.0,0.1,0.0,0.0,0.0,0.1
1474475406731269665,511,1474475406741111040,sparus2,0.0165920779074,0.0579597157247,0.875552264199,0.479347063161,0.1,0.0,0.0,0.0,0.1,0.0,0.0,0.0,0.1,-0.211179649572,-0.043508405368,-0.0823788598675,0.1,0.0,0.0,0.0,0.1,0.0,0.0,0.0,0.1,0.335218526855,-1.27566366286,-9.74361238029,0.1,0.0,0.0,0.0,0.1,0.0,0.0,0.0,0.1
1474475406831986760,512,1474475406839344978,sparus2,0.0114968924216,0.0484998570875,0.873237013613,0.484739830614,0.1,0.0,0.0,0.0,0.1,0.0,0.0,0.0,0.1,-0.226488532948,-0.00769016110738,-0.0755196666407,0.1,0.0,0.0,0.0,0.1,0.0,0.0,0.0,0.1,0.351771259749,-1.07802275734,-9.7113594175,0.1,0.0,0.0,0.0,0.1,0.0,0.0,0.0,0.1
1474475406932747020,513,1474475406936564922,sparus2,0.00449888220196,0.0399488005911,0.870754121539,0.490072559131,0.1,0.0,0.0,0.0,0.1,0.0,0.0,0.0,0.1,-0.237862833494,0.0312618078649,-0.0691387961511,0.1,0.0,0.0,0.0,0.1,0.0,0.0,0.0,0.1,0.464699207076,-0.97828087179,-9.6935218687,0.1,0.0,0.0,0.0,0.1,0.0,0.0,0.0,0.1
1474475407033344653,514,1474475407040199041,sparus2,-0.00390038704297,0.0310735380428,0.86846119539,0.494766989922,0.1,0.0,0.0,0.0,0.1,0.0,0.0,0.0,0.1,-0.247656785298,0.054924731071,-0.0627398147405,0.1,0.0,0.0,0.0,0.1,0.0,0.0,0.0,0.1,0.403907223626,-0.831440825399,-9.61560653074,0.1,0.0,0.0,0.0,0.1,0.0,0.0,0.0,0.1
1474475407134586640,515,1474475407137003898,sparus2,-0.0124388285928,0.0249989854897,0.866808240108,0.497859218201,0.1,0.0,0.0,0.0,0.1,0.0,0.0,0.0,0.1,-0.202763016758,0.0926570709981,-0.0574130033304,0.1,0.0,0.0,0.0,0.1,0.0,0.0,0.0,0.1,0.361147352159,-0.542878362361,-9.2780374078,0.1,0.0,0.0,0.0,0.1,0.0,0.0,0.0,0.1
1474475407225142551,516,1474475407234513998,sparus2,-0.0206283090126,0.0213722828632,0.86507848064,0.500756348662,0.1,0.0,0.0,0.0,0.1,0.0,0.0,0.0,0.1,-0.149478373425,0.110007557587,-0.0522284458307,0.1,0.0,0.0,0.0,0.1,0.0,0.0,0.0,0.1,0.467578736963,-0.243052851957,-9.33031897404,0.1,0.0,0.0,0.0,0.1,0.0,0.0,0.0,0.1
1474475407326254334,517,1474475407333262920,sparus2,-0.0276491281115,0.0204351048076,0.863395562145,0.50335478092,0.1,0.0,0.0,0.0,0.1,0.0,0.0,0.0,0.1,-0.085797707672,0.115641804811,-0.0465488141949,0.1,0.0,0.0,0.0,0.1,0.0,0.0,0.0,0.1,0.562493798201,-0.0346799542215,-9.31244723719,0.1,0.0,0.0,0.0,0.1,0.0,0.0,0.0,0.1
1474475407426922839,518,1474475407435359001,sparus2,-0.0328875653576,0.0220045342914,0.861788527073,0.505722001816,0.1,0.0,0.0,0.0,0.1,0.0,0.0,0.0,0.1,-0.0205383796572,0.111978261237,-0.0459590201863,0.1,0.0,0.0,0.0,0.1,0.0,0.0,0.0,0.1,0.456236698866,0.0769055612374,-9.3844621881,0.1,0.0,0.0,0.0,0.1,0.0,0.0,0.0,0.1
1474475407527571411,519,1474475407531979084,sparus2,-0.0353842578371,0.0255446068952,0.860187955173,0.508106395483,0.1,0.0,0.0,0.0,0.1,0.0,0.0,0.0,0.1,0.0493432891124,0.0930837113018,-0.0528847587559,0.1,0.0,0.0,0.0,0.1,0.0,0.0,0.0,0.1,0.406275242071,0.282781604128,-9.35327008981,0.1,0.0,0.0,0.0,0.1,0.0,0.0,0.0,0.1
1474475407628171857,520,1474475407630491018,sparus2,-0.0353241161715,0.030530306487,0.857386053209,0.512551717356,0.1,0.0,0.0,0.0,0.1,0.0,0.0,0.0,0.1,0.101304157266,0.0654634800387,-0.0809428262086,0.1,0.0,0.0,0.0,0.1,0.0,0.0,0.0,0.1,0.607803654014,0.0324160259458,-9.60182172941,0.1,0.0,0.0,0.0,0.1,0.0,0.0,0.0,0.1
1474475407729016935,521,1474475407733812093,sparus2,-0.0328881251417,0.037216593607,0.853556911927,0.518626931895,0.1,0.0,0.0,0.0,0.1,0.0,0.0,0.0,0.1,0.145125216647,0.0365041104989,-0.109219189835,0.1,0.0,0.0,0.0,0.1,0.0,0.0,0.0,0.1,0.690106478356,-0.173763310693,-9.63248681876,0.1,0.0,0.0,0.0,0.1,0.0,0.0,0.0,0.1
1474475407829635678,522,1474475407829627990,sparus2,-0.0291703284012,0.0440468157647,0.849274783815,0.525301162704,0.1,0.0,0.0,0.0,0.1,0.0,0.0,0.0,0.1,0.186860724457,0.00916490336483,-0.128821969541,0.1,0.0,0.0,0.0,0.1,0.0,0.0,0.0,0.1,0.860729910959,-0.0763408222279,-9.65294648861,0.1,0.0,0.0,0.0,0.1,0.0,0.0,0.0,0.1
1474475407920269871,523,1474475407927236080,sparus2,-0.0235111245262,0.050502176126,0.845527278884,0.531018246291,0.1,0.0,0.0,0.0,0.1,0.0,0.0,0.0,0.1,0.215483025764,-0.0170425557734,-0.127739768293,0.1,0.0,0.0,0.0,0.1,0.0,0.0,0.0,0.1,0.622468797718,0.0519045750693,-9.78983708203,0.1,0.0,0.0,0.0,0.1,0.0,0.0,0.0,0.1
1474475408020950887,524,1474475408026103019,sparus2,-0.0168131307921,0.0592914215908,0.841750398415,0.536337685351,0.1,0.0,0.0,0.0,0.1,0.0,0.0,0.0,0.1,0.24086153954,-0.0203062657679,-0.112031715473,0.1,0.0,0.0,0.0,0.1,0.0,0.0,0.0,0.1,0.761944358495,-0.310171756752,-10.0318927695,0.1,0.0,0.0,0.0,0.1,0.0,0.0,0.0,0.1
1474475408121539520,525,1474475408129021883,sparus2,-0.00974624211651,0.068814587454,0.838280411403,0.540791563521,0.1,0.0,0.0,0.0,0.1,0.0,0.0,0.0,0.1,0.250675148732,-0.0147873196552,-0.0930285551156,0.1,0.0,0.0,0.0,0.1,0.0,0.0,0.0,0.1,0.670449622023,-0.453332207931,-10.2221324603,0.1,0.0,0.0,0.0,0.1,0.0,0.0,0.0,0.1
1474475408222154018,526,1474475408226241111,sparus2,-0.00368045284838,0.0785363634897,0.83460722402,0.545205718505,0.1,0.0,0.0,0.0,0.1,0.0,0.0,0.0,0.1,0.243263854947,0.000360919134138,-0.0881388270169,0.1,0.0,0.0,0.0,0.1,0.0,0.0,0.0,0.1,0.906610045586,-1.16318062518,-10.2910398604,0.1,0.0,0.0,0.0,0.1,0.0,0.0,0.0,0.1
1474475408322855184,527,1474475408323945045,sparus2,0.00114620461164,0.0869655457795,0.830770205176,0.549778633865,0.1,0.0,0.0,0.0,0.1,0.0,0.0,0.0,0.1,0.209361661759,0.00766264272517,-0.0975862326745,0.1,0.0,0.0,0.0,0.1,0.0,0.0,0.0,0.1,0.882650923436,-1.24142076015,-10.1504321384,0.1,0.0,0.0,0.0,0.1,0.0,0.0,0.0,0.1
1474475408423432997,528,1474475408426704883,sparus2,0.00464937954217,0.0943938288014,0.826180780904,0.555421916761,0.1,0.0,0.0,0.0,0.1,0.0,0.0,0.0,0.1,0.165054915822,0.0139489538233,-0.116202534154,0.1,0.0,0.0,0.0,0.1,0.0,0.0,0.0,0.1,1.04815479822,-1.59700136695,-10.1174192919,0.1,0.0,0.0,0.0,0.1,0.0,0.0,0.0,0.1
1474475408524033079,529,1474475408525542974,sparus2,0.00661502831976,0.0991399894696,0.821813293633,0.561026215338,0.1,0.0,0.0,0.0,0.1,0.0,0.0,0.0,0.1,0.116647569468,0.0150640891784,-0.132533253452,0.1,0.0,0.0,0.0,0.1,0.0,0.0,0.0,0.1,0.8249769336,-1.44080299395,-10.112743998,0.1,0.0,0.0,0.0,0.1,0.0,0.0,0.0,0.1
1474475408614594195,530,1474475408623740911,sparus2,0.00795131322292,0.102607350756,0.817032543126,0.567332646392,0.1,0.0,0.0,0.0,0.1,0.0,0.0,0.0,0.1,0.0832470861012,0.0128021586027,-0.129512297099,0.1,0.0,0.0,0.0,0.1,0.0,0.0,0.0,0.1,0.952475275514,-1.6922921495,-9.78972019461,0.1,0.0,0.0,0.0,0.1,0.0,0.0,0.0,0.1
1474475408725259321,531,1474475408725718021,sparus2,0.00954350018725,0.10454707164,0.812778586651,0.573035601422,0.1,0.0,0.0,0.0,0.1,0.0,0.0,0.0,0.1,0.0612552793397,-0.00159689610703,-0.11951135853,0.1,0.0,0.0,0.0,0.1,0.0,0.0,0.0,0.1,0.806107777764,-1.66277530329,-9.66647783036,0.1,0.0,0.0,0.0,0.1,0.0,0.0,0.0,0.1
1474475408815962598,532,1474475408823126077,sparus2,0.0110963131774,0.106041592453,0.808896811472,0.578202387486,0.1,0.0,0.0,0.0,0.1,0.0,0.0,0.0,0.1,0.046677535535,-0.0145641967677,-0.0960193411088,0.1,0.0,0.0,0.0,0.1,0.0,0.0,0.0,0.1,1.0381043468,-1.82488941657,-9.63179504114,0.1,0.0,0.0,0.0,0.1,0.0,0.0,0.0,0.1
1474475408916533864,533,1474475408921153068,sparus2,0.0130630202804,0.10634073163,0.806135096972,0.581951210779,0.1,0.0,0.0,0.0,0.1,0.0,0.0,0.0,0.1,0.0374005302425,-0.0356698673553,-0.0752428304168,0.1,0.0,0.0,0.0,0.1,0.0,0.0,0.0,0.1,1.00318247645,-1.56674634945,-9.32557548851,0.1,0.0,0.0,0.0,0.1,0.0,0.0,0.0,0.1
1474475409017112761,534,1474475409018347024,sparus2,0.0148995921913,0.10399149479,0.803577614326,0.585855604153,0.1,0.0,0.0,0.0,0.1,0.0,0.0,0.0,0.1,-0.0149634651796,-0.0609505807154,-0.0628746664285,0.1,0.0,0.0,0.0,0.1,0.0,0.0,0.0,0.1,0.937417334969,-1.80872243558,-9.63338976118,0.1,0.0,0.0,0.0,0.1,0.0,0.0,0.0,0.1
1474475409117749932,535,1474475409121763944,sparus2,0.0159242417721,0.0983387013272,0.801116495138,0.590159537383,0.1,0.0,0.0,0.0,0.1,0.0,0.0,0.0,0.1,-0.0678203252358,-0.0857112890896,-0.0574381380248,0.1,0.0,0.0,0.0,0.1,0.0,0.0,0.0,0.1,0.95039638934,-1.58784036712,-9.71882092608,0.1,0.0,0.0,0.0,0.1,0.0,0.0,0.0,0.1
1474475409218316333,536,1474475409218135118,sparus2,0.0159993263707,0.0911853085262,0.798681230785,0.594590239287,0.1,0.0,0.0,0.0,0.1,0.0,0.0,0.0,0.1,-0.110567810141,-0.095100116339,-0.0696080782054,0.1,0.0,0.0,0.0,0.1,0.0,0.0,0.0,0.1,0.853380946487,-1.49005985159,-9.66518431614,0.1,0.0,0.0,0.0,0.1,0.0,0.0,0.0,0.1
1474475409318940228,537,1474475409316169977,sparus2,0.0154489746946,0.0820646522716,0.796065212758,0.599422137616,0.1,0.0,0.0,0.0,0.1,0.0,0.0,0.0,0.1,-0.143863427119,-0.1054968286,-0.0848670300408,0.1,0.0,0.0,0.0,0.1,0.0,0.0,0.0,0.1,0.701712959546,-1.28456012105,-9.81612078663,0.1,0.0,0.0,0.0,0.1,0.0,0.0,0.0,0.1
1474475409419540403,538,1474475409419291019,sparus2,0.0142507775946,0.0722424433186,0.792551929634,0.605342368874,0.1,0.0,0.0,0.0,0.1,0.0,0.0,0.0,0.1,-0.165601390328,-0.108202971502,-0.11196135848,0.1,0.0,0.0,0.0,0.1,0.0,0.0,0.0,0.1,0.896948578371,-1.40735125836,-10.0722360894,0.1,0.0,0.0,0.0,0.1,0.0,0.0,0.0,0.1
1474475409510081765,539,1474475409516868114,sparus2,0.0129673874631,0.0645591691271,0.788664590848,0.611287267729,0.1,0.0,0.0,0.0,0.1,0.0,0.0,0.0,0.1,-0.137123000084,-0.0852781907672,-0.126808492496,0.1,0.0,0.0,0.0,0.1,0.0,0.0,0.0,0.1,0.742426677679,-1.1378004248,-10.0111727935,0.1,0.0,0.0,0.0,0.1,0.0,0.0,0.0,0.1
1474475409610669007,540,1474475409614079952,sparus2,0.0111859872054,0.0576980249587,0.784685483349,0.617101696503,0.1,0.0,0.0,0.0,0.1,0.0,0.0,0.0,0.1,-0.121715263249,-0.0652433158404,-0.129816638259,0.1,0.0,0.0,0.0,0.1,0.0,0.0,0.0,0.1,0.626023613578,-0.730357236677,-10.3413906782,0.1,0.0,0.0,0.0,0.1,0.0,0.0,0.0,0.1
1474475409711250287,541,1474475409711900949,sparus2,0.00855580533325,0.0522349709003,0.780334508151,0.623118256351,0.1,0.0,0.0,0.0,0.1,0.0,0.0,0.0,0.1,-0.0971968196162,-0.0376642340039,-0.108836104449,0.1,0.0,0.0,0.0,0.1,0.0,0.0,0.0,0.1,0.650578267449,-0.498106542016,-9.84596486786,0.1,0.0,0.0,0.0,0.1,0.0,0.0,0.0,0.1
1474475409811824314,542,1474475409814068078,sparus2,0.00628959603202,0.0488560317565,0.77682490388,0.627787064102,0.1,0.0,0.0,0.0,0.1,0.0,0.0,0.0,0.1,-0.0634414446564,-0.0124145887161,-0.0774258747745,0.1,0.0,0.0,0.0,0.1,0.0,0.0,0.0,0.1,0.59002505579,-0.544960362428,-9.89417328181,0.1,0.0,0.0,0.0,0.1,0.0,0.0,0.0,0.1
1474475409902393648,543,1474475409912075996,sparus2,0.00385664320807,0.047772991692,0.773880442189,0.631515580778,0.1,0.0,0.0,0.0,0.1,0.0,0.0,0.0,0.1,-0.0333679120186,0.019256677112,-0.0543418485563,0.1,0.0,0.0,0.0,0.1,0.0,0.0,0.0,0.1,0.626927558631,-0.503742689438,-9.79928955447,0.1,0.0,0.0,0.0,0.1,0.0,0.0,0.0,0.1
1474475410002976870,544,1474475410009855985,sparus2,0.00168781499222,0.0473822380399,0.771049728615,0.635007394289,0.1,0.0,0.0,0.0,0.1,0.0,0.0,0.0,0.1,-0.0236269521867,0.0270487126063,-0.0562887382807,0.1,0.0,0.0,0.0,0.1,0.0,0.0,0.0,0.1,0.5859275939,-0.545718790864,-9.64315762772,0.1,0.0,0.0,0.0,0.1,0.0,0.0,0.0,0.1
1474475410113626963,545,1474475410112760066,sparus2,6.46588601875e-05,0.0474405746083,0.767685660666,0.639068160768,0.1,0.0,0.0,0.0,0.1,0.0,0.0,0.0,0.1,-0.0217639640856,0.0204215396834,-0.082052473161,0.1,0.0,0.0,0.0,0.1,0.0,0.0,0.0,0.1,0.675670775359,-0.862905574157,-9.49356944433,0.1,0.0,0.0,0.0,0.1,0.0,0.0,0.0,0.1
1474475410204410981,546,1474475410210242986,sparus2,-0.00143686163648,0.0466255253624,0.762859271151,0.644879623056,0.1,0.0,0.0,0.0,0.1,0.0,0.0,0.0,0.1,-0.0395591032818,0.00744676575743,-0.119498552943,0.1,0.0,0.0,0.0,0.1,0.0,0.0,0.0,0.1,0.660594280215,-0.850600075822,-9.72917039442,0.1,0.0,0.0,0.0,0.1,0.0,0.0,0.0,0.1
1474475410305032385,547,1474475410308360099,sparus2,-0.00187351488025,0.0457611690567,0.757066683287,0.651730344855,0.1,0.0,0.0,0.0,0.1,0.0,0.0,0.0,0.1,-0.032985892477,-0.00871411593893,-0.148411875904,0.1,0.0,0.0,0.0,0.1,0.0,0.0,0.0,0.1,0.628326730072,-0.979441827201,-9.80855041184,0.1,0.0,0.0,0.0,0.1,0.0,0.0,0.0,0.1
1474475410405649196,548,1474475410407526969,sparus2,-0.00170881728193,0.044923522212,0.75110333828,0.658652208923,0.1,0.0,0.0,0.0,0.1,0.0,0.0,0.0,0.1,-0.00823060276636,-0.0198479215682,-0.152034588322,0.1,0.0,0.0,0.0,0.1,0.0,0.0,0.0,0.1,0.646893191525,-0.660237024639,-9.71312607234,0.1,0.0,0.0,0.0,0.1,0.0,0.0,0.0,0.1
1474475410506239717,549,1474475410508725881,sparus2,0.000225181439468,0.0449090876579,0.74539870042,0.665104428306,0.1,0.0,0.0,0.0,0.1,0.0,0.0,0.0,0.1,0.0300218219319,-0.0325964050599,-0.1371858891,0.1,0.0,0.0,0.0,0.1,0.0,0.0,0.0,0.1,0.583664527446,-0.627071615642,-9.7846755888,0.1,0.0,0.0,0.0,0.1,0.0,0.0,0.0,0.1
1474475410607376197,550,1474475410606038093,sparus2,0.00410816418375,0.045692504797,0.74097283416,0.669966101404,0.1,0.0,0.0,0.0,0.1,0.0,0.0,0.0,0.1,0.0755036574754,-0.0505193459144,-0.100182962763,0.1,0.0,0.0,0.0,0.1,0.0,0.0,0.0,0.1,0.533436413179,-0.574725769073,-9.9422653484,0.1,0.0,0.0,0.0,0.1,0.0,0.0,0.0,0.1
1474475410697995913,551,1474475410705029010,sparus2,0.0093919201006,0.0474260690688,0.737804338105,0.673281010042,0.1,0.0,0.0,0.0,0.1,0.0,0.0,0.0,0.1,0.108687565384,-0.0560076809465,-0.073446239463,0.1,0.0,0.0,0.0,0.1,0.0,0.0,0.0,0.1,0.418104518062,-0.45727191511,-10.0379499041,0.1,0.0,0.0,0.0,0.1,0.0,0.0,0.0,0.1
1474475410808687854,552,1474475410808768987,sparus2,0.0154848967264,0.0501925283218,0.734787531613,0.676260461257,0.1,0.0,0.0,0.0,0.1,0.0,0.0,0.0,0.1,0.129652299317,-0.0516423085267,-0.061329424465,0.1,0.0,0.0,0.0,0.1,0.0,0.0,0.0,0.1,0.392101512124,-0.552244950508,-10.0151221173,0.1,0.0,0.0,0.0,0.1,0.0,0.0,0.0,0.1
1474475410909282336,553,1474475410905807018,sparus2,0.0215689659781,0.0524527667899,0.731680170268,0.679284635039,0.1,0.0,0.0,0.0,0.1,0.0,0.0,0.0,0.1,0.12156718362,-0.0524720945807,-0.0608914296606,0.1,0.0,0.0,0.0,0.1,0.0,0.0,0.0,0.1,0.20081056516,-1.04180804151,-9.88633502967,0.1,0.0,0.0,0.0,0.1,0.0,0.0,0.0,0.1
1474475410999808391,554,1474475411002393007,sparus2,0.0264871342628,0.0548889857073,0.727513828074,0.683380758383,0.1,0.0,0.0,0.0,0.1,0.0,0.0,0.0,0.1,0.107393709579,-0.0434284610781,-0.0793249102105,0.1,0.0,0.0,0.0,0.1,0.0,0.0,0.0,0.1,0.370259419872,-1.12198644341,-9.70334405807,0.1,0.0,0.0,0.0,0.1,0.0,0.0,0.0,0.1
1474475411100436826,555,1474475411099050998,sparus2,0.0296815961456,0.0569602650939,0.72303313886,0.687820915036,0.1,0.0,0.0,0.0,0.1,0.0,0.0,0.0,0.1,0.0809173027144,-0.0197285668495,-0.097536335487,0.1,0.0,0.0,0.0,0.1,0.0,0.0,0.0,0.1,0.285204748096,-1.14234420573,-9.63417635177,0.1,0.0,0.0,0.0,0.1,0.0,0.0,0.0,0.1
1474475411201170342,556,1474475411201885938,sparus2,0.032443385345,0.059061600036,0.717902698529,0.692874353395,0.1,0.0,0.0,0.0,0.1,0.0,0.0,0.0,0.1,0.0814118143662,-0.00613960646387,-0.126547834211,0.1,0.0,0.0,0.0,0.1,0.0,0.0,0.0,0.1,0.110896910864,-1.02280796357,-9.61312129689,0.1,0.0,0.0,0.0,0.1,0.0,0.0,0.0,0.1
1474475411291729865,557,1474475411299941062,sparus2,0.0347912529851,0.0609516180058,0.7125905994,0.698060961968,0.1,0.0,0.0,0.0,0.1,0.0,0.0,0.0,0.1,0.0938818226268,-0.000274195460279,-0.140398062076,0.1,0.0,0.0,0.0,0.1,0.0,0.0,0.0,0.1,0.0441118878388,-0.772660123063,-9.69191966751,0.1,0.0,0.0,0.0,0.1,0.0,0.0,0.0,0.1
1474475411392269623,558,1474475411397154092,sparus2,0.0378898589034,0.0641680880403,0.706809945552,0.703467494586,0.1,0.0,0.0,0.0,0.1,0.0,0.0,0.0,0.1,0.119713068303,0.000686945228914,-0.14254736673,0.1,0.0,0.0,0.0,0.1,0.0,0.0,0.0,0.1,0.196381288182,-0.970080986854,-9.69003058824,0.1,0.0,0.0,0.0,0.1,0.0,0.0,0.0,0.1
1474475411492880412,559,1474475411497972965,sparus2,0.0412977845164,0.0685085047405,0.700196337777,0.709454837418,0.1,0.0,0.0,0.0,0.1,0.0,0.0,0.0,0.1,0.118083956544,-0.00474508870949,-0.129218220518,0.1,0.0,0.0,0.0,0.1,0.0,0.0,0.0,0.1,0.583413846963,-1.34503896988,-9.5985353522,0.1,0.0,0.0,0.0,0.1,0.0,0.0,0.0,0.1
1474475411593474702,560,1474475411596471071,sparus2,0.0442701604583,0.0702969062686,0.693965498872,0.715199541552,0.1,0.0,0.0,0.0,0.1,0.0,0.0,0.0,0.1,0.0954401386257,-0.028196349942,-0.132106436852,0.1,0.0,0.0,0.0,0.1,0.0,0.0,0.0,0.1,0.446232542394,-1.13601881661,-9.70214630638,0.1,0.0,0.0,0.0,0.1,0.0,0.0,0.0,0.1
1474475411694092966,561,1474475411694092988,sparus2,0.0459861172737,0.0691985862636,0.687954088413,0.720982666167,0.1,0.0,0.0,0.0,0.1,0.0,0.0,0.0,0.1,0.0272972483831,-0.0529507639009,-0.147644522555,0.1,0.0,0.0,0.0,0.1,0.0,0.0,0.0,0.1,0.432360780369,-1.05094342452,-10.0865893394,0.1,0.0,0.0,0.0,0.1,0.0,0.0,0.0,0.1
1474475411794702320,562,1474475411796823978,sparus2,0.046325080295,0.0658457529612,0.681698606474,0.727190025842,0.1,0.0,0.0,0.0,0.1,0.0,0.0,0.0,0.1,-0.034663383031,-0.0608079834074,-0.159687853472,0.1,0.0,0.0,0.0,0.1,0.0,0.0,0.0,0.1,0.210020523327,-1.51606142507,-10.3740944776,0.1,0.0,0.0,0.0,0.1,0.0,0.0,0.0,0.1
1474475411895266789,563,1474475411895680904,sparus2,0.0439691351984,0.0617879183337,0.674316365682,0.734538227236,0.1,0.0,0.0,0.0,0.1,0.0,0.0,0.0,0.1,-0.0813482473448,-0.044787935396,-0.170102113594,0.1,0.0,0.0,0.0,0.1,0.0,0.0,0.0,0.1,0.448259106604,-1.31302718475,-9.69480164469,0.1,0.0,0.0,0.0,0.1,0.0,0.0,0.0,0.1
1474475411985810647,564,1474475411995239019,sparus2,0.0407760079418,0.0578353668295,0.668192014621,0.740615837743,0.1,0.0,0.0,0.0,0.1,0.0,0.0,0.0,0.1,-0.0945272195226,-0.0224213706708,-0.163208682116,0.1,0.0,0.0,0.0,0.1,0.0,0.0,0.0,0.1,0.18716406798,-1.23094346429,-10.2088316891,0.1,0.0,0.0,0.0,0.1,0.0,0.0,0.0,0.1
1474475412086516939,565,1474475412089521884,sparus2,0.0367223427636,0.055245983086,0.662599276844,0.746030528344,0.1,0.0,0.0,0.0,0.1,0.0,0.0,0.0,0.1,-0.101856819324,0.00630598157515,-0.147957597275,0.1,0.0,0.0,0.0,0.1,0.0,0.0,0.0,0.1,0.420429493227,-1.4167253565,-9.91526846678,0.1,0.0,0.0,0.0,0.1,0.0,0.0,0.0,0.1
1474475412187132917,566,1474475412192099094,sparus2,0.0323437100327,0.0534100052606,0.656473273897,0.75176066432,0.1,0.0,0.0,0.0,0.1,0.0,0.0,0.0,0.1,-0.0856493959064,0.0253642510456,-0.138076594791,0.1,0.0,0.0,0.0,0.1,0.0,0.0,0.0,0.1,0.334632526714,-1.14661342129,-9.63338241505,0.1,0.0,0.0,0.0,0.1,0.0,0.0,0.0,0.1
1474475412287674130,567,1474475412289777994,sparus2,0.0286739319678,0.051644488077,0.650978171884,0.756794603712,0.1,0.0,0.0,0.0,0.1,0.0,0.0,0.0,0.1,-0.0732544591145,0.0284487734458,-0.140434131693,0.1,0.0,0.0,0.0,0.1,0.0,0.0,0.0,0.1,0.158538803378,-0.987150517536,-9.59654307426,0.1,0.0,0.0,0.0,0.1,0.0,0.0,0.0,0.1
1474475412388299373,568,1474475412387630939,sparus2,0.0246235570459,0.0498525893962,0.644272214492,0.762772386366,0.1,0.0,0.0,0.0,0.1,0.0,0.0,0.0,0.1,-0.070001077002,0.0141624004206,-0.138049501797,0.1,0.0,0.0,0.0,0.1,0.0,0.0,0.0,0.1,0.566864362973,-0.727889288655,-9.74602243644,0.1,0.0,0.0,0.0,0.1,0.0,0.0,0.0,0.1
1474475412488866094,569,1474475412488977909,sparus2,0.0219554417831,0.0462335408323,0.638319579376,0.768068052235,0.1,0.0,0.0,0.0,0.1,0.0,0.0,0.0,0.1,-0.0698730206603,-0.0217645526669,-0.128996466564,0.1,0.0,0.0,0.0,0.1,0.0,0.0,0.0,0.1,0.356422297003,-0.649428514154,-9.86691654405,0.1,0.0,0.0,0.0,0.1,0.0,0.0,0.0,0.1
1474475412579429296,570,1474475412586914062,sparus2,0.0204821717663,0.0416664881824,0.632390114382,0.773257478227,0.1,0.0,0.0,0.0,0.1,0.0,0.0,0.0,0.1,-0.0735977570924,-0.0560201966506,-0.132477434439,0.1,0.0,0.0,0.0,0.1,0.0,0.0,0.0,0.1,0.359143317913,-0.697149631837,-9.82778430902,0.1,0.0,0.0,0.0,0.1,0.0,0.0,0.0,0.1
1474475412680076618,571,1474475412683861970,sparus2,0.0194369509533,0.037844051803,0.62651105405,0.778250558518,0.1,0.0,0.0,0.0,0.1,0.0,0.0,0.0,0.1,-0.0678854233274,-0.0563399736894,-0.128111298633,0.1,0.0,0.0,0.0,0.1,0.0,0.0,0.0,0.1,0.441498464219,-0.830772382714,-9.9366933286,0.1,0.0,0.0,0.0,0.1,0.0,0.0,0.0,0.1
1474475412780658476,572,1474475412781789064,sparus2,0.0179387427894,0.0337498486972,0.620642004743,0.783161957177,0.1,0.0,0.0,0.0,0.1,0.0,0.0,0.0,0.1,-0.0726467273744,-0.0544879920818,-0.136499789707,0.1,0.0,0.0,0.0,0.1,0.0,0.0,0.0,0.1,0.449094752703,-0.594532065356,-9.44937868524,0.1,0.0,0.0,0.0,0.1,0.0,0.0,0.0,0.1
1474475412881263396,573,1474475412883883953,sparus2,0.0168738485002,0.0288977839517,0.615262777913,0.787611519363,0.1,0.0,0.0,0.0,0.1,0.0,0.0,0.0,0.1,-0.0828830277371,-0.0542700857085,-0.142607855243,0.1,0.0,0.0,0.0,0.1,0.0,0.0,0.0,0.1,-0.213065856046,-0.955297307083,-9.54758792532,0.1,0.0,0.0,0.0,0.1,0.0,0.0,0.0,0.1
1474475412981809084,574,1474475412981379985,sparus2,0.0142387381156,0.0236953622477,0.609040085203,0.792657531826,0.1,0.0,0.0,0.0,0.1,0.0,0.0,0.0,0.1,-0.103944717179,-0.0552783636939,-0.130965977097,0.1,0.0,0.0,0.0,0.1,0.0,0.0,0.0,0.1,0.230142395653,-0.437551563035,-9.7035632846,0.1,0.0,0.0,0.0,0.1,0.0,0.0,0.0,0.1
1474475413072316635,575,1474475413079500913,sparus2,0.012470989895,0.0193379157501,0.603176286216,0.797275916588,0.1,0.0,0.0,0.0,0.1,0.0,0.0,0.0,0.1,-0.0811880839439,-0.0495401861503,-0.122500246981,0.1,0.0,0.0,0.0,0.1,0.0,0.0,0.0,0.1,0.134444318343,-0.404106561178,-9.7677955708,0.1,0.0,0.0,0.0,0.1,0.0,0.0,0.0,0.1
1474475413182973554,576,1474475413182511091,sparus2,0.0118085424009,0.0160168641103,0.597258958465,0.801801568297,0.1,0.0,0.0,0.0,0.1,0.0,0.0,0.0,0.1,-0.0502159742319,-0.0503817125452,-0.109981333107,0.1,0.0,0.0,0.0,0.1,0.0,0.0,0.0,0.1,0.215022238333,-0.400932016171,-9.80570266771,0.1,0.0,0.0,0.0,0.1,0.0,0.0,0.0,0.1
1474475413273505609,577,1474475413279092073,sparus2,0.01135899609,0.0139648826509,0.591768892537,0.805906652837,0.1,0.0,0.0,0.0,0.1,0.0,0.0,0.0,0.1,-0.0405700603807,-0.0346557734089,-0.107317009966,0.1,0.0,0.0,0.0,0.1,0.0,0.0,0.0,0.1,0.18045661935,-0.48994190951,-9.83792144245,0.1,0.0,0.0,0.0,0.1,0.0,0.0,0.0,0.1
1474475413374113816,578,1474475413376710891,sparus2,0.0108206539849,0.012978333289,0.585871216051,0.81022798922,0.1,0.0,0.0,0.0,0.1,0.0,0.0,0.0,0.1,-0.0267434345148,-0.0186927561458,-0.112426929082,0.1,0.0,0.0,0.0,0.1,0.0,0.0,0.0,0.1,0.226356287936,-0.438671850406,-9.93902050089,0.1,0.0,0.0,0.0,0.1,0.0,0.0,0.0,0.1
1474475413464638616,579,1474475413474217891,sparus2,0.00976199840786,0.0119323480112,0.580259697063,0.814285580385,0.1,0.0,0.0,0.0,0.1,0.0,0.0,0.0,0.1,-0.0321497850001,-0.00892212417028,-0.124677444791,0.1,0.0,0.0,0.0,0.1,0.0,0.0,0.0,0.1,0.184946878081,-0.392241744119,-10.0572521773,0.1,0.0,0.0,0.0,0.1,0.0,0.0,0.0,0.1
1474475413575195119,580,1474475413582133054,sparus2,0.00838633632034,0.0105756773692,0.574270921523,0.818554050203,0.1,0.0,0.0,0.0,0.1,0.0,0.0,0.0,0.1,-0.0358078868265,-0.00925450555218,-0.123554792114,0.1,0.0,0.0,0.0,0.1,0.0,0.0,0.0,0.1,0.163360313469,-0.260369568998,-10.174902117,0.1,0.0,0.0,0.0,0.1,0.0,0.0,0.0,0.1
1474475413665710242,581,1474475413674649000,sparus2,0.00727153386731,0.00948839914416,0.568946704099,0.822287506272,0.1,0.0,0.0,0.0,0.1,0.0,0.0,0.0,0.1,-0.0290847526577,-0.00849914182424,-0.116258866491,0.1,0.0,0.0,0.0,0.1,0.0,0.0,0.0,0.1,0.15664456828,-0.124905868483,-10.2687592579,0.1,0.0,0.0,0.0,0.1,0.0,0.0,0.0,0.1
1474475413766411459,582,1474475413772551059,sparus2,0.00704221440246,0.00953766741951,0.564413993903,0.825406738283,0.1,0.0,0.0,0.0,0.1,0.0,0.0,0.0,0.1,0.00047016625936,0.00349203908326,-0.0962129703769,0.1,0.0,0.0,0.0,0.1,0.0,0.0,0.0,0.1,0.0442830319698,-0.0953842044607,-10.2469649942,0.1,0.0,0.0,0.0,0.1,0.0,0.0,0.0,0.1
1474475413877432919,583,1474475413875461101,sparus2,0.00738233025472,0.0114192665179,0.559991648154,0.82838665824,0.1,0.0,0.0,0.0,0.1,0.0,0.0,0.0,0.1,0.051553747219,0.0399771364591,-0.0719211918122,0.1,0.0,0.0,0.0,0.1,0.0,0.0,0.0,0.1,-0.170660222066,0.240560830083,-9.94344895235,0.1,0.0,0.0,0.0,0.1,0.0,0.0,0.0,0.1
1474475413967907651,584,1474475413973962068,sparus2,0.00878081306356,0.0168866800762,0.556574531333,0.830579634008,0.1,0.0,0.0,0.0,0.1,0.0,0.0,0.0,0.1,0.0923141159806,0.0738490332048,-0.060026134888,0.1,0.0,0.0,0.0,0.1,0.0,0.0,0.0,0.1,0.240798073111,-0.0883603261555,-10.0397295276,0.1,0.0,0.0,0.0,0.1,0.0,0.0,0.0,0.1
1474475414069172558,585,1474475414071078062,sparus2,0.0104225385957,0.0237344596336,0.552597783093,0.833044858477,0.1,0.0,0.0,0.0,0.1,0.0,0.0,0.0,0.1,0.111910091253,0.0976471189496,-0.0590867921085,0.1,0.0,0.0,0.0,0.1,0.0,0.0,0.0,0.1,0.279540019041,-0.336989781992,-9.75737790639,0.1,0.0,0.0,0.0,0.1,0.0,0.0,0.0,0.1
1474475414170626550,586,1474475414169141054,sparus2,0.0123905912064,0.0333082162514,0.547349410459,0.836149304162,0.1,0.0,0.0,0.0,0.1,0.0,0.0,0.0,0.1,0.121610513564,0.106920761758,-0.0733610622011,0.1,0.0,0.0,0.0,0.1,0.0,0.0,0.0,0.1,1.02870098484,-0.931745008214,-9.82540998001,0.1,0.0,0.0,0.0,0.1,0.0,0.0,0.0,0.1
1474475414271279790,587,1474475414271812915,sparus2,0.0131406708163,0.0401521066491,0.542372809046,0.839075006843,0.1,0.0,0.0,0.0,0.1,0.0,0.0,0.0,0.1,0.11966971894,0.108416626833,-0.0779903650532,0.1,0.0,0.0,0.0,0.1,0.0,0.0,0.0,0.1,0.266598852731,0.644401273459,-9.56631031591,0.1,0.0,0.0,0.0,0.1,0.0,0.0,0.0,0.1
1474475414371842467,588,1474475414368979930,sparus2,0.0152887139101,0.046341965877,0.538648092886,0.841116466047,0.1,0.0,0.0,0.0,0.1,0.0,0.0,0.0,0.1,0.106452765738,0.0900216888563,-0.0861155426808,0.1,0.0,0.0,0.0,0.1,0.0,0.0,0.0,0.1,0.213045618974,-0.779967482036,-9.08501127737,0.1,0.0,0.0,0.0,0.1,0.0,0.0,0.0,0.1
1474475414462347370,589,1474475414466311931,sparus2,0.015954267309,0.0498417370834,0.534818683176,0.84334467374,0.1,0.0,0.0,0.0,0.1,0.0,0.0,0.0,0.1,0.069680799811,0.0616372537184,-0.0780245738583,0.1,0.0,0.0,0.0,0.1,0.0,0.0,0.0,0.1,0.237027579153,-0.145250551467,-9.49071489859,0.1,0.0,0.0,0.0,0.1,0.0,0.0,0.0,0.1
1474475414563176721,590,1474475414568919897,sparus2,0.0181575752291,0.0528188208548,0.530820040654,0.845642098683,0.1,0.0,0.0,0.0,0.1,0.0,0.0,0.0,0.1,0.0631447138019,0.0197811723444,-0.0768632443457,0.1,0.0,0.0,0.0,0.1,0.0,0.0,0.0,0.1,0.779570730418,-1.04747429137,-9.20211425777,0.1,0.0,0.0,0.0,0.1,0.0,0.0,0.0,0.1
1474475414665981136,591,1474475414667702913,sparus2,0.0217601511506,0.0538453697849,0.526961907376,0.847902305781,0.1,0.0,0.0,0.0,0.1,0.0,0.0,0.0,0.1,0.0881396846391,-0.0147057138288,-0.0751979901663,0.1,0.0,0.0,0.0,0.1,0.0,0.0,0.0,0.1,0.302363378319,-0.444310899699,-9.58470879167,0.1,0.0,0.0,0.0,0.1,0.0,0.0,0.0,0.1
1474475414756475560,592,1474475414764169931,sparus2,0.0272305109248,0.0544409928123,0.523066731852,0.850115210784,0.1,0.0,0.0,0.0,0.1,0.0,0.0,0.0,0.1,0.0935975625823,-0.0480333644469,-0.0890949411906,0.1,0.0,0.0,0.0,0.1,0.0,0.0,0.0,0.1,0.381934144849,-1.32824017271,-8.90344377056,0.1,0.0,0.0,0.0,0.1,0.0,0.0,0.0,0.1
1474475414857084411,593,1474475414866487979,sparus2,0.0336473027899,0.0522707828761,0.517867267609,0.853199342131,0.1,0.0,0.0,0.0,0.1,0.0,0.0,0.0,0.1,0.0949346029206,-0.0947862262333,-0.109935235457,0.1,0.0,0.0,0.0,0.1,0.0,0.0,0.0,0.1,0.0107587899733,-0.878219655338,-10.5088087492,0.1,0.0,0.0,0.0,0.1,0.0,0.0,0.0,0.1
1474475414957657152,594,1474475414964740037,sparus2,0.0393301753385,0.0489282415418,0.511990587198,0.856694112918,0.1,0.0,0.0,0.0,0.1,0.0,0.0,0.0,0.1,0.0741573116213,-0.11781711363,-0.122845865261,0.1,0.0,0.0,0.0,0.1,0.0,0.0,0.0,0.1,0.133248608242,-0.888673040624,-9.9732856019,0.1,0.0,0.0,0.0,0.1,0.0,0.0,0.0,0.1
1474475415068974657,595,1474475415063266992,sparus2,0.0475757379572,0.0433282239216,0.507756133391,0.859094245804,0.1,0.0,0.0,0.0,0.1,0.0,0.0,0.0,0.1,0.0576426130295,-0.1519797673,-0.138142223918,0.1,0.0,0.0,0.0,0.1,0.0,0.0,0.0,0.1,-0.532986731934,-1.77437539467,-9.53959215615,0.1,0.0,0.0,0.0,0.1,0.0,0.0,0.0,0.1
1474475415159510336,596,1474475415161217927,sparus2,0.0514245700468,0.0387711965283,0.498793282393,0.864324921169,0.1,0.0,0.0,0.0,0.1,0.0,0.0,0.0,0.1,0.0380815816146,-0.142450145672,-0.157955210182,0.1,0.0,0.0,0.0,0.1,0.0,0.0,0.0,0.1,0.76797343498,-0.66424224042,-10.605651426,0.1,0.0,0.0,0.0,0.1,0.0,0.0,0.0,0.1
1474475415260236219,597,1474475415264570951,sparus2,0.0543947690422,0.0336328942389,0.489543279916,0.86963061964,0.1,0.0,0.0,0.0,0.1,0.0,0.0,0.0,0.1,0.0270028139885,-0.123121370464,-0.16144961525,0.1,0.0,0.0,0.0,0.1,0.0,0.0,0.0,0.1,0.0132018608448,-0.215619323932,-10.0438292068,0.1,0.0,0.0,0.0,0.1,0.0,0.0,0.0,0.1
1474475415360823561,598,1474475415361394882,sparus2,0.0570706772407,0.0305080499577,0.481752192289,0.873914768105,0.1,0.0,0.0,0.0,0.1,0.0,0.0,0.0,0.1,0.0290830124896,-0.0910795712341,-0.14982680589,0.1,0.0,0.0,0.0,0.1,0.0,0.0,0.0,0.1,-0.0116939391979,-0.851344383036,-10.516940456,0.1,0.0,0.0,0.0,0.1,0.0,0.0,0.0,0.1
1474475415451373160,599,1474475415460349082,sparus2,0.0596568265897,0.0307206318214,0.473935573712,0.877999076191,0.1,0.0,0.0,0.0,0.1,0.0,0.0,0.0,0.1,0.0549041219716,-0.0456858836979,-0.134794825948,0.1,0.0,0.0,0.0,0.1,0.0,0.0,0.0,0.1,0.672171948764,-1.09838746308,-10.2318997418,0.1,0.0,0.0,0.0,0.1,0.0,0.0,0.0,0.1
1474475415552001410,600,1474475415561911106,sparus2,0.0631638667487,0.033340178115,0.466940348108,0.881399721902,0.1,0.0,0.0,0.0,0.1,0.0,0.0,0.0,0.1,0.0949246475786,-0.00536890464176,-0.113756328029,0.1,0.0,0.0,0.0,0.1,0.0,0.0,0.0,0.1,0.493419421292,-1.04425327458,-9.97572281947,0.1,0.0,0.0,0.0,0.1,0.0,0.0,0.0,0.1
1474475415654108101,601,1474475415659821987,sparus2,0.0670608421947,0.0363416967705,0.462042455272,0.883571668879,0.1,0.0,0.0,0.0,0.1,0.0,0.0,0.0,0.1,0.114720342604,0.0235543780153,-0.0916510911937,0.1,0.0,0.0,0.0,0.1,0.0,0.0,0.0,0.1,-0.452606391603,-0.956866925401,-10.1478292881,0.1,0.0,0.0,0.0,0.1,0.0,0.0,0.0,0.1
1474475415754709096,602,1474475415758038043,sparus2,0.0700322491893,0.0429132157209,0.452810747331,0.887815502845,0.1,0.0,0.0,0.0,0.1,0.0,0.0,0.0,0.1,0.141658844812,0.0457569658645,-0.10353424336,0.1,0.0,0.0,0.0,0.1,0.0,0.0,0.0,0.1,0.957603493118,-1.14241841995,-9.78797507417,0.1,0.0,0.0,0.0,0.1,0.0,0.0,0.0,0.1
1474475415855295431,603,1474475415855492115,sparus2,0.0722671990985,0.0486973552625,0.442213206828,0.892666510648,0.1,0.0,0.0,0.0,0.1,0.0,0.0,0.0,0.1,0.145614814764,0.0488000821913,-0.113236002647,0.1,0.0,0.0,0.0,0.1,0.0,0.0,0.0,0.1,0.899435311418,-0.769064975479,-9.74071811397,0.1,0.0,0.0,0.0,0.1,0.0,0.0,0.0,0.1
1474475415955918380,604,1474475415958633899,sparus2,0.0770672336986,0.0545537109794,0.434102622538,0.895901471822,0.1,0.0,0.0,0.0,0.1,0.0,0.0,0.0,0.1,0.11933201436,0.0363400118962,-0.137505533326,0.1,0.0,0.0,0.0,0.1,0.0,0.0,0.0,0.1,0.578217894133,-2.10459839352,-9.48321911643,0.1,0.0,0.0,0.0,0.1,0.0,0.0,0.0,0.1
1474475416056506380,605,1474475416055746078,sparus2,0.0796248395947,0.0569636167902,0.426531387575,0.899158499206,0.1,0.0,0.0,0.0,0.1,0.0,0.0,0.0,0.1,0.0746023619458,0.00830528370416,-0.148497082864,0.1,0.0,0.0,0.0,0.1,0.0,0.0,0.0,0.1,0.377260740363,-1.74132295199,-9.43832342655,0.1,0.0,0.0,0.0,0.1,0.0,0.0,0.0,0.1
1474475416147010821,606,1474475416154344081,sparus2,0.0808015080909,0.0571595950162,0.418625198782,0.902749599797,0.1,0.0,0.0,0.0,0.1,0.0,0.0,0.0,0.1,0.0296315701173,-0.016538672071,-0.157480869264,0.1,0.0,0.0,0.0,0.1,0.0,0.0,0.0,0.1,0.219055832796,-1.89305861452,-10.3280076577,0.1,0.0,0.0,0.0,0.1,0.0,0.0,0.0,0.1
1474475416257669408,607,1474475416259721994,sparus2,0.0802553795496,0.055857488921,0.410482518324,0.906610785914,0.1,0.0,0.0,0.0,0.1,0.0,0.0,0.0,0.1,-0.0129454049521,-0.0267999131334,-0.152675941784,0.1,0.0,0.0,0.0,0.1,0.0,0.0,0.0,0.1,0.162298260434,-1.65573134628,-9.39449535777,0.1,0.0,0.0,0.0,0.1,0.0,0.0,0.0,0.1
1474475416348232122,608,1474475416354221105,sparus2,0.0789513513778,0.0551849399955,0.402624587456,0.910282784682,0.1,0.0,0.0,0.0,0.1,0.0,0.0,0.0,0.1,-0.0385076130465,-0.0354349173654,-0.14992052819,0.1,0.0,0.0,0.0,0.1,0.0,0.0,0.0,0.1,1.2331791871,-2.27857463167,-9.95168395229,0.1,0.0,0.0,0.0,0.1,0.0,0.0,0.0,0.1
1474475416448802318,609,1474475416452302932,sparus2,0.0779127992653,0.0530901674588,0.396944778045,0.91298733453,0.1,0.0,0.0,0.0,0.1,0.0,0.0,0.0,0.1,-0.0477092593582,-0.0314701284524,-0.132504496089,0.1,0.0,0.0,0.0,0.1,0.0,0.0,0.0,0.1,-0.0877203252765,-2.05384511462,-8.52882891395,0.1,0.0,0.0,0.0,0.1,0.0,0.0,0.0,0.1
1474475416549382077,610,1474475416550211906,sparus2,0.0752861859261,0.0515218315906,0.391351429135,0.915708223176,0.1,0.0,0.0,0.0,0.1,0.0,0.0,0.0,0.1,-0.0642435683223,-0.0128563062464,-0.113489739727,0.1,0.0,0.0,0.0,0.1,0.0,0.0,0.0,0.1,0.214568514906,-2.06372462638,-10.5012173845,0.1,0.0,0.0,0.0,0.1,0.0,0.0,0.0,0.1
1474475416650005392,611,1474475416652553081,sparus2,0.0713742265458,0.0523983038898,0.3834323671,0.9193148304,0.1,0.0,0.0,0.0,0.1,0.0,0.0,0.0,0.1,-0.0726939737375,-0.00121004664776,-0.103329502238,0.1,0.0,0.0,0.0,0.1,0.0,0.0,0.0,0.1,1.22268877209,-1.804558257,-9.38548211241,0.1,0.0,0.0,0.0,0.1,0.0,0.0,0.0,0.1
1474475416740553053,612,1474475416749402999,sparus2,0.0673792141697,0.0510900129379,0.378560908301,0.92170575065,0.1,0.0,0.0,0.0,0.1,0.0,0.0,0.0,0.1,-0.0785307593695,0.0144162023444,-0.0991123945636,0.1,0.0,0.0,0.0,0.1,0.0,0.0,0.0,0.1,-0.125874765746,-1.49185564757,-10.4187363434,0.1,0.0,0.0,0.0,0.1,0.0,0.0,0.0,0.1
1474475416841168957,613,1474475416847266912,sparus2,0.062723268203,0.0510814476316,0.372409143514,0.924536590493,0.1,0.0,0.0,0.0,0.1,0.0,0.0,0.0,0.1,-0.0834447234221,0.0173287847907,-0.106296714705,0.1,0.0,0.0,0.0,0.1,0.0,0.0,0.0,0.1,0.987831335335,-1.42575246847,-9.93741934374,0.1,0.0,0.0,0.0,0.1,0.0,0.0,0.0,0.1
1474475416951858729,614,1474475416950282096,sparus2,0.0567186246072,0.0511222082763,0.366470829174,0.927291027029,0.1,0.0,0.0,0.0,0.1,0.0,0.0,0.0,0.1,-0.116845863054,0.0230460964528,-0.111434747862,0.1,0.0,0.0,0.0,0.1,0.0,0.0,0.0,0.1,1.22951798373,-2.01380632541,-10.6257342173,0.1,0.0,0.0,0.0,0.1,0.0,0.0,0.0,0.1
1474475417042336043,615,1474475417049535989,sparus2,0.0488109386025,0.0486280917123,0.361691646056,0.929748328389,0.1,0.0,0.0,0.0,0.1,0.0,0.0,0.0,0.1,-0.174271489202,0.0077822620536,-0.104400558342,0.1,0.0,0.0,0.0,0.1,0.0,0.0,0.0,0.1,0.460967891367,-1.55179867939,-9.44423079522,0.1,0.0,0.0,0.0,0.1,0.0,0.0,0.0,0.1
1474475417143068168,616,1474475417147082090,sparus2,0.0407601678262,0.0453693502612,0.356564779403,0.932277742341,0.1,0.0,0.0,0.0,0.1,0.0,0.0,0.0,0.1,-0.184609856892,0.00234969058188,-0.0936940529789,0.1,0.0,0.0,0.0,0.1,0.0,0.0,0.0,0.1,0.396713626794,-1.19634582451,-9.73452250815,0.1,0.0,0.0,0.0,0.1,0.0,0.0,0.0,0.1
1474475417243755248,617,1474475417244124889,sparus2,0.0331404806451,0.042458887012,0.35173449657,0.934548979658,0.1,0.0,0.0,0.0,0.1,0.0,0.0,0.0,0.1,-0.170160425075,0.00513383855973,-0.0803611337418,0.1,0.0,0.0,0.0,0.1,0.0,0.0,0.0,0.1,0.419620134558,-0.956852139801,-9.71773217562,0.1,0.0,0.0,0.0,0.1,0.0,0.0,0.0,0.1
1474475417344595024,618,1474475417346318006,sparus2,0.0261740551997,0.0401640110027,0.347000698301,0.936638823898,0.1,0.0,0.0,0.0,0.1,0.0,0.0,0.0,0.1,-0.144588640822,0.0119612068058,-0.0760341929905,0.1,0.0,0.0,0.0,0.1,0.0,0.0,0.0,0.1,0.409664432251,-0.814020599192,-9.72530953204,0.1,0.0,0.0,0.0,0.1,0.0,0.0,0.0,0.1
1474475417435131081,619,1474475417443773031,sparus2,0.020574908093,0.0383608662551,0.342999475919,0.938326423275,0.1,0.0,0.0,0.0,0.1,0.0,0.0,0.0,0.1,-0.121405784526,0.0130337845343,-0.0644683191549,0.1,0.0,0.0,0.0,0.1,0.0,0.0,0.0,0.1,0.406144982007,-0.661610690242,-9.77198489044,0.1,0.0,0.0,0.0,0.1,0.0,0.0,0.0,0.1
1474475417545753283,620,1474475417546276092,sparus2,0.0161365816541,0.0363264257826,0.338428146026,0.940152323563,0.1,0.0,0.0,0.0,0.1,0.0,0.0,0.0,0.1,-0.0896378846823,-0.0001432493338,-0.0662542601404,0.1,0.0,0.0,0.0,0.1,0.0,0.0,0.0,0.1,0.408300263196,-0.459506144247,-9.90472787842,0.1,0.0,0.0,0.0,0.1,0.0,0.0,0.0,0.1
1474475417636398090,621,1474475417644248008,sparus2,0.012759137062,0.0335452542633,0.333670164736,0.942006444512,0.1,0.0,0.0,0.0,0.1,0.0,0.0,0.0,0.1,-0.0779477984979,-0.0229990544551,-0.0731313177967,0.1,0.0,0.0,0.0,0.1,0.0,0.0,0.0,0.1,0.394078331981,-0.366108530908,-9.91252423635,0.1,0.0,0.0,0.0,0.1,0.0,0.0,0.0,0.1
1474475417736990301,622,1474475417742041110,sparus2,0.0105863386073,0.0294205136313,0.328553948421,0.943967513101,0.1,0.0,0.0,0.0,0.1,0.0,0.0,0.0,0.1,-0.0605973619155,-0.0593415534221,-0.0779239068906,0.1,0.0,0.0,0.0,0.1,0.0,0.0,0.0,0.1,0.373682993543,-0.241983410098,-9.99094613342,0.1,0.0,0.0,0.0,0.1,0.0,0.0,0.0,0.1
1474475417837551778,623,1474475417839999914,sparus2,0.00993913928194,0.0248155127736,0.324118176235,0.945638837861,0.1,0.0,0.0,0.0,0.1,0.0,0.0,0.0,0.1,-0.0373321636413,-0.0831669508871,-0.078241548676,0.1,0.0,0.0,0.0,0.1,0.0,0.0,0.0,0.1,0.307477217186,-0.161144285195,-10.0859394065,0.1,0.0,0.0,0.0,0.1,0.0,0.0,0.0,0.1
1474475417938119213,624,1474475417941385984,sparus2,0.010690204886,0.0203630905708,0.319292806917,0.947376993342,0.1,0.0,0.0,0.0,0.1,0.0,0.0,0.0,0.1,-0.00810893023595,-0.0865495376418,-0.0828267561049,0.1,0.0,0.0,0.0,0.1,0.0,0.0,0.0,0.1,0.225241456776,-0.124368467719,-10.0400922629,0.1,0.0,0.0,0.0,0.1,0.0,0.0,0.0,0.1
1474475418028593583,625,1474475418038651943,sparus2,0.012860394783,0.0174155632976,0.314642277735,0.948963405755,0.1,0.0,0.0,0.0,0.1,0.0,0.0,0.0,0.1,0.0304360652134,-0.0695956753707,-0.0811434750695,0.1,0.0,0.0,0.0,0.1,0.0,0.0,0.0,0.1,0.130478514272,-0.0987179219507,-10.0494080282,0.1,0.0,0.0,0.0,0.1,0.0,0.0,0.0,0.1
1474475418139264049,626,1474475418139017105,sparus2,0.0158549169769,0.0157872859809,0.309276482961,0.950708914598,0.1,0.0,0.0,0.0,0.1,0.0,0.0,0.0,0.1,0.0595244267578,-0.0451860983277,-0.0771028079148,0.1,0.0,0.0,0.0,0.1,0.0,0.0,0.0,0.1,0.0963814158505,-0.163318963207,-9.97954219268,0.1,0.0,0.0,0.0,0.1,0.0,0.0,0.0,0.1
1474475418229820692,627,1474475418235357046,sparus2,0.0193355583234,0.0161186830526,0.304140276747,0.952294605834,0.1,0.0,0.0,0.0,0.1,0.0,0.0,0.0,0.1,0.0836338625879,-0.0120868476952,-0.0728668970614,0.1,0.0,0.0,0.0,0.1,0.0,0.0,0.0,0.1,0.103956572125,-0.234044234938,-9.90116822187,0.1,0.0,0.0,0.0,0.1,0.0,0.0,0.0,0.1
1474475418330462367,628,1474475418337409019,sparus2,0.0237409102153,0.0177557244824,0.299548746757,0.953620286983,0.1,0.0,0.0,0.0,0.1,0.0,0.0,0.0,0.1,0.101781011027,0.00735639578948,-0.0606078783444,0.1,0.0,0.0,0.0,0.1,0.0,0.0,0.0,0.1,0.118427841235,-0.367652920534,-9.81502527958,0.1,0.0,0.0,0.0,0.1,0.0,0.0,0.0,0.1
1474475418431087801,629,1474475418434714078,sparus2,0.0275838339848,0.0201391143775,0.295292635654,0.954796212552,0.1,0.0,0.0,0.0,0.1,0.0,0.0,0.0,0.1,0.0993882463598,0.0230202080349,-0.0547607876229,0.1,0.0,0.0,0.0,0.1,0.0,0.0,0.0,0.1,0.206023166273,-0.46759656254,-9.75897258143,0.1,0.0,0.0,0.0,0.1,0.0,0.0,0.0,0.1
1474475418532040566,630,1474475418538213014,sparus2,0.0317791771838,0.0231802488239,0.291794867338,0.955671761306,0.1,0.0,0.0,0.0,0.1,0.0,0.0,0.0,0.1,0.0985191006166,0.0321388254633,-0.0410479075458,0.1,0.0,0.0,0.0,0.1,0.0,0.0,0.0,0.1,0.244566189956,-0.660070520612,-9.78246417434,0.1,0.0,0.0,0.0,0.1,0.0,0.0,0.0,0.1
1474475418632809931,631,1474475418634448051,sparus2,0.0354530389899,0.0265694687663,0.288469950626,0.956463398642,0.1,0.0,0.0,0.0,0.1,0.0,0.0,0.0,0.1,0.0925594506765,0.0411858708046,-0.0416612048088,0.1,0.0,0.0,0.0,0.1,0.0,0.0,0.0,0.1,0.36108740493,-0.841883589141,-9.79680427562,0.1,0.0,0.0,0.0,0.1,0.0,0.0,0.0,0.1
1474475418733409264,632,1474475418732274055,sparus2,0.0388291499924,0.0303688703516,0.285159581568,0.957211597226,0.1,0.0,0.0,0.0,0.1,0.0,0.0,0.0,0.1,0.0837847970083,0.0515931713702,-0.0467280691497,0.1,0.0,0.0,0.0,0.1,0.0,0.0,0.0,0.1,0.39217656455,-1.00386704863,-9.81247901577,0.1,0.0,0.0,0.0,0.1,0.0,0.0,0.0,0.1
1474475418823983461,633,1474475418829442024,sparus2,0.0407834258238,0.033293119933,0.280745256456,0.958337300391,0.1,0.0,0.0,0.0,0.1,0.0,0.0,0.0,0.1,0.0496833766526,0.040181994324,-0.0727831304943,0.1,0.0,0.0,0.0,0.1,0.0,0.0,0.0,0.1,0.470402187421,-1.0900293916,-9.87423363928,0.1,0.0,0.0,0.0,0.1,0.0,0.0,0.0,0.1
1474475418924686693,634,1474475418928267955,sparus2,0.0416265457274,0.035133820902,0.27573243657,0.959689777346,0.1,0.0,0.0,0.0,0.1,0.0,0.0,0.0,0.1,0.0261622259173,0.0260459145386,-0.0962655209132,0.1,0.0,0.0,0.0,0.1,0.0,0.0,0.0,0.1,0.482844986005,-1.10324186931,-9.94468805819,0.1,0.0,0.0,0.0,0.1,0.0,0.0,0.0,0.1
1474475419025246742,635,1474475419029536008,sparus2,0.0415518882468,0.0360321734982,0.268688194436,0.961655747774,0.1,0.0,0.0,0.0,0.1,0.0,0.0,0.0,0.1,0.00687393593645,0.0143339312206,-0.116706476077,0.1,0.0,0.0,0.0,0.1,0.0,0.0,0.0,0.1,0.442123279377,-0.967782986596,-9.93709709856,0.1,0.0,0.0,0.0,0.1,0.0,0.0,0.0,0.1
1474475419125848343,636,1474475419126935005,sparus2,0.0413160943358,0.0363030187488,0.262006060265,0.9634977403,0.1,0.0,0.0,0.0,0.1,0.0,0.0,0.0,0.1,0.00758847212575,0.00834146312465,-0.10816436618,0.1,0.0,0.0,0.0,0.1,0.0,0.0,0.0,0.1,0.382611752768,-0.820705931319,-9.93762415251,0.1,0.0,0.0,0.0,0.1,0.0,0.0,0.0,0.1
1474475419216518036,637,1474475419225152015,sparus2,0.0411591315401,0.036572185078,0.256324510754,0.96502131912,0.1,0.0,0.0,0.0,0.1,0.0,0.0,0.0,0.1,0.0146086939671,0.0104168813206,-0.0755359287006,0.1,0.0,0.0,0.0,0.1,0.0,0.0,0.0,0.1,0.383434255152,-0.691394979972,-9.91368081836,0.1,0.0,0.0,0.0,0.1,0.0,0.0,0.0,0.1
1474475419327186102,638,1474475419326997995,sparus2,0.0412567542632,0.037133400791,0.252370106536,0.966037432039,0.1,0.0,0.0,0.0,0.1,0.0,0.0,0.0,0.1,0.0198467877207,0.0156664484676,-0.0371000679667,0.1,0.0,0.0,0.0,0.1,0.0,0.0,0.0,0.1,0.402564550011,-0.678628001343,-9.79563395537,0.1,0.0,0.0,0.0,0.1,0.0,0.0,0.0,0.1
1474475419417762883,639,1474475419424030065,sparus2,0.041335814887,0.0382828581061,0.250147000923,0.96656725121,0.1,0.0,0.0,0.0,0.1,0.0,0.0,0.0,0.1,0.0177836684366,0.0284866356072,-0.00599067272442,0.1,0.0,0.0,0.0,0.1,0.0,0.0,0.0,0.1,0.44575984597,-0.764984769224,-9.69318656483,0.1,0.0,0.0,0.0,0.1,0.0,0.0,0.0,0.1
1474475419518363325,640,1474475419520906925,sparus2,0.0408635697017,0.0391939184386,0.24897489126,0.966853406133,0.1,0.0,0.0,0.0,0.1,0.0,0.0,0.0,0.1,-0.000108524465272,0.0270479965665,0.00714816113924,0.1,0.0,0.0,0.0,0.1,0.0,0.0,0.0,0.1,0.457125957118,-0.850943439804,-9.62264313999,0.1,0.0,0.0,0.0,0.1,0.0,0.0,0.0,0.1
1474475419619103670,641,1474475419618768930,sparus2,0.0391731207002,0.0395463329232,0.248682160197,0.966984352183,0.1,0.0,0.0,0.0,0.1,0.0,0.0,0.0,0.1,-0.0326276074265,0.0174788681857,0.0058019290325,0.1,0.0,0.0,0.0,0.1,0.0,0.0,0.0,0.1,0.513872800642,-0.925985328869,-9.52778675409,0.1,0.0,0.0,0.0,0.1,0.0,0.0,0.0,0.1
1474475419719693324,642,1474475419721467971,sparus2,0.0368051668861,0.0387545473711,0.247892706266,0.96731208559,0.1,0.0,0.0,0.0,0.1,0.0,0.0,0.0,0.1,-0.0509962263111,-0.00341839122395,-0.00585560084448,0.1,0.0,0.0,0.0,0.1,0.0,0.0,0.0,0.1,0.551068303553,-0.949292776665,-9.48801800936,0.1,0.0,0.0,0.0,0.1,0.0,0.0,0.0,0.1
1474475419810298378,643,1474475419818655967,sparus2,0.0349660568753,0.036771339661,0.246448572741,0.967826608665,0.1,0.0,0.0,0.0,0.1,0.0,0.0,0.0,0.1,-0.0501753335552,-0.0324190294684,-0.019863814225,0.1,0.0,0.0,0.0,0.1,0.0,0.0,0.0,0.1,0.580681896717,-0.942133426765,-9.4325881727,0.1,0.0,0.0,0.0,0.1,0.0,0.0,0.0,0.1
1474475419910869230,644,1474475419917598962,sparus2,0.0340385766003,0.0336825063909,0.244531341699,0.968458200953,0.1,0.0,0.0,0.0,0.1,0.0,0.0,0.0,0.1,-0.0349223153183,-0.0599096977819,-0.0264238416319,0.1,0.0,0.0,0.0,0.1,0.0,0.0,0.0,0.1,0.579883467384,-0.837444635498,-9.44013129607,0.1,0.0,0.0,0.0,0.1,0.0,0.0,0.0,0.1
1474475420011473618,645,1474475420018547058,sparus2,0.034171543811,0.0294743929405,0.242227501971,0.969169439801,0.1,0.0,0.0,0.0,0.1,0.0,0.0,0.0,0.1,-0.0178764791691,-0.0837104053413,-0.0318300793526,0.1,0.0,0.0,0.0,0.1,0.0,0.0,0.0,0.1,0.449077433125,-0.788273333936,-9.55981395877,0.1,0.0,0.0,0.0,0.1,0.0,0.0,0.0,0.1
1474475420112019154,646,1474475420118402957,sparus2,0.035036729136,0.0247289231605,0.238803202284,0.970120579387,0.1,0.0,0.0,0.0,0.1,0.0,0.0,0.0,0.1,-0.00469419268251,-0.10101973016,-0.0384039036357,0.1,0.0,0.0,0.0,0.1,0.0,0.0,0.0,0.1,0.355812223812,-0.754378015195,-9.77308678959,0.1,0.0,0.0,0.0,0.1,0.0,0.0,0.0,0.1
1474475420212609510,647,1474475420213340997,sparus2,0.0352277147712,0.020698651534,0.235384745862,0.971043045056,0.1,0.0,0.0,0.0,0.1,0.0,0.0,0.0,0.1,-0.0127730005784,-0.0928602842938,-0.0484789987223,0.1,0.0,0.0,0.0,0.1,0.0,0.0,0.0,0.1,0.595894896837,-0.664645543657,-9.97290309631,0.1,0.0,0.0,0.0,0.1,0.0,0.0,0.0,0.1
1474475420303145462,648,1474475420310908079,sparus2,0.0349347926627,0.0173256792531,0.231623284153,0.972023680441,0.1,0.0,0.0,0.0,0.1,0.0,0.0,0.0,0.1,-0.0210441481656,-0.0669970749483,-0.0640300142442,0.1,0.0,0.0,0.0,0.1,0.0,0.0,0.0,0.1,0.150567708924,-0.747502090022,-10.1373507738,0.1,0.0,0.0,0.0,0.1,0.0,0.0,0.0,0.1
1474475420403847603,649,1474475420413350105,sparus2,0.0341978470277,0.0151101676619,0.227408804918,0.973081407457,0.1,0.0,0.0,0.0,0.1,0.0,0.0,0.0,0.1,-0.022062919381,-0.0394532445797,-0.0692950676322,0.1,0.0,0.0,0.0,0.1,0.0,0.0,0.0,0.1,0.0864882935482,-0.682204475519,-10.1381994834,0.1,0.0,0.0,0.0,0.1,0.0,0.0,0.0,0.1
1474475420504608066,650,1474475420511224985,sparus2,0.0331948893877,0.014425171746,0.223500961295,0.974031485137,0.1,0.0,0.0,0.0,0.1,0.0,0.0,0.0,0.1,-0.0211568395508,-0.00756074349481,-0.0677788154738,0.1,0.0,0.0,0.0,0.1,0.0,0.0,0.0,0.1,0.00569985068048,-0.653128310576,-10.0688127756,0.1,0.0,0.0,0.0,0.1,0.0,0.0,0.0,0.1
1474475420605436111,651,1474475420608463048,sparus2,0.0324701277098,0.0144414133548,0.220255767601,0.97479461079,0.1,0.0,0.0,0.0,0.1,0.0,0.0,0.0,0.1,-0.0104766189413,0.00614205333488,-0.051480073275,0.1,0.0,0.0,0.0,0.1,0.0,0.0,0.0,0.1,-0.00191896776871,-0.558088990317,-10.0137251794,0.1,0.0,0.0,0.0,0.1,0.0,0.0,0.0,0.1
1474475420706062272,652,1474475420711312055,sparus2,0.0322264497483,0.0142778157261,0.216542240014,0.975636745005,0.1,0.0,0.0,0.0,0.1,0.0,0.0,0.0,0.1,0.00531878244913,0.00616066668279,-0.0368724254707,0.1,0.0,0.0,0.0,0.1,0.0,0.0,0.0,0.1,-0.0212578791886,-0.481993098742,-9.95103973196,0.1,0.0,0.0,0.0,0.1,0.0,0.0,0.0,0.1
1474475420806658359,653,1474475420809032917,sparus2,0.0328019728427,0.0141734889913,0.2130181098,0.976394606542,0.1,0.0,0.0,0.0,0.1,0.0,0.0,0.0,0.1,0.0232982068686,0.00716978887958,-0.0353781859196,0.1,0.0,0.0,0.0,0.1,0.0,0.0,0.0,0.1,-0.0802726363235,-0.471950348236,-9.94412631668,0.1,0.0,0.0,0.0,0.1,0.0,0.0,0.0,0.1
1474475420907285936,654,1474475420907111883,sparus2,0.0343894870073,0.0142965566121,0.210563682034,0.97687046606,0.1,0.0,0.0,0.0,0.1,0.0,0.0,0.0,0.1,0.0382443491193,0.00155705966593,-0.0338628985697,0.1,0.0,0.0,0.0,0.1,0.0,0.0,0.0,0.1,-0.11964682218,-0.505657975801,-9.99979569468,0.1,0.0,0.0,0.0,0.1,0.0,0.0,0.0,0.1
1474475421007982360,655,1474475421009186029,sparus2,0.036673135269,0.0146501041009,0.207922325937,0.977347820367,0.1,0.0,0.0,0.0,0.1,0.0,0.0,0.0,0.1,0.0514144680785,0.00343731067546,-0.0349395825459,0.1,0.0,0.0,0.0,0.1,0.0,0.0,0.0,0.1,-0.13703489311,-0.534037567496,-10.0001652766,0.1,0.0,0.0,0.0,0.1,0.0,0.0,0.0,0.1
1474475421098513781,656,1474475421107114076,sparus2,0.0384256058977,0.0148438478502,0.204911652673,0.977913261793,0.1,0.0,0.0,0.0,0.1,0.0,0.0,0.0,0.1,0.0477135325129,0.00923166392374,-0.0244105672986,0.1,0.0,0.0,0.0,0.1,0.0,0.0,0.0,0.1,-0.0936659829757,-0.588072522763,-9.88977099273,0.1,0.0,0.0,0.0,0.1,0.0,0.0,0.0,0.1
1474475421199284357,657,1474475421205039978,sparus2,0.0399091505139,0.0153729878284,0.201850139307,0.978482218649,0.1,0.0,0.0,0.0,0.1,0.0,0.0,0.0,0.1,0.0470367153961,0.0159321572415,-0.0217536488147,0.1,0.0,0.0,0.0,0.1,0.0,0.0,0.0,0.1,-0.0576597999229,-0.547020755993,-9.73997759105,0.1,0.0,0.0,0.0,0.1,0.0,0.0,0.0,0.1
1474475421299884390,658,1474475421302424907,sparus2,0.0413738747907,0.0160418685482,0.199562580252,0.978879787053,0.1,0.0,0.0,0.0,0.1,0.0,0.0,0.0,0.1,0.0461641745427,0.0168703349444,-0.00371205650209,0.1,0.0,0.0,0.0,0.1,0.0,0.0,0.0,0.1,0.00624790759428,-0.588028022856,-9.59782307528,0.1,0.0,0.0,0.0,0.1,0.0,0.0,0.0,0.1
1474475421400521177,659,1474475421405817985,sparus2,0.0438413812029,0.01697749355,0.198027542295,0.979068327799,0.1,0.0,0.0,0.0,0.1,0.0,0.0,0.0,0.1,0.0566830700315,0.0105626068102,0.00646673917353,0.1,0.0,0.0,0.0,0.1,0.0,0.0,0.0,0.1,0.146970829142,-0.772070502718,-9.58038925143,0.1,0.0,0.0,0.0,0.1,0.0,0.0,0.0,0.1
1474475421501110763,660,1474475421501880884,sparus2,0.0463140193043,0.017328794171,0.197450858459,0.979064800206,0.1,0.0,0.0,0.0,0.1,0.0,0.0,0.0,0.1,0.0549909755378,-0.0020201257127,0.00777301501902,0.1,0.0,0.0,0.0,0.1,0.0,0.0,0.0,0.1,0.161668034391,-0.800800789939,-9.56454334603,0.1,0.0,0.0,0.0,0.1,0.0,0.0,0.0,0.1
1474475421601871628,661,1474475421606261014,sparus2,0.0481617963784,0.0174137403015,0.195631089094,0.97933941001,0.1,0.0,0.0,0.0,0.1,0.0,0.0,0.0,0.1,0.0375859760069,-0.0103943150315,-0.00278055013138,0.1,0.0,0.0,0.0,0.1,0.0,0.0,0.0,0.1,0.267840750217,-0.936724054815,-9.61814572292,0.1,0.0,0.0,0.0,0.1,0.0,0.0,0.0,0.1
1474475421702442463,662,1474475421703739881,sparus2,0.0487455787848,0.0172804771609,0.193219942645,0.979791461191,0.1,0.0,0.0,0.0,0.1,0.0,0.0,0.0,0.1,0.00645959093553,-0.0138934735669,-0.0227211449349,0.1,0.0,0.0,0.0,0.1,0.0,0.0,0.0,0.1,0.311290231228,-1.07964558117,-9.68063951027,0.1,0.0,0.0,0.0,0.1,0.0,0.0,0.0,0.1
1474475421792992585,663,1474475421799762964,sparus2,0.0476642561155,0.0170169530904,0.189607302148,0.980554747563,0.1,0.0,0.0,0.0,0.1,0.0,0.0,0.0,0.1,-0.0315394825329,-0.0122671528715,-0.0529502806301,0.1,0.0,0.0,0.0,0.1,0.0,0.0,0.0,0.1,0.32735037051,-1.14041327035,-9.76687136848,0.1,0.0,0.0,0.0,0.1,0.0,0.0,0.0,0.1
1474475421893561045,664,1474475421897556066,sparus2,0.0446840268567,0.0171675959673,0.184264979519,0.981710257008,0.1,0.0,0.0,0.0,0.1,0.0,0.0,0.0,0.1,-0.0676086088793,8.68994613929e-05,-0.089154134918,0.1,0.0,0.0,0.0,0.1,0.0,0.0,0.0,0.1,0.382580926244,-1.09496414797,-9.85998930054,0.1,0.0,0.0,0.0,0.1,0.0,0.0,0.0,0.1
1474475421994197708,665,1474475422000497102,sparus2,0.0408579166955,0.0184011289072,0.177957104,0.983017445539,0.1,0.0,0.0,0.0,0.1,0.0,0.0,0.0,0.1,-0.0780271221895,0.0237921997947,-0.10816963679,0.1,0.0,0.0,0.0,0.1,0.0,0.0,0.0,0.1,0.431722458265,-0.994449768704,-9.89811544395,0.1,0.0,0.0,0.0,0.1,0.0,0.0,0.0,0.1
1474475422094997733,666,1474475422098485946,sparus2,0.0370196037221,0.0210210302926,0.170919090991,0.984364937186,0.1,0.0,0.0,0.0,0.1,0.0,0.0,0.0,0.1,-0.065470001201,0.0552192610381,-0.116353747063,0.1,0.0,0.0,0.0,0.1,0.0,0.0,0.0,0.1,0.383290796206,-0.828547789185,-9.86701915319,0.1,0.0,0.0,0.0,0.1,0.0,0.0,0.0,0.1
1474475422195552738,667,1474475422197433948,sparus2,0.0340598256154,0.0240741442292,0.164717936061,0.985458454425,0.1,0.0,0.0,0.0,0.1,0.0,0.0,0.0,0.1,-0.0422514865334,0.068461264219,-0.0972760553709,0.1,0.0,0.0,0.0,0.1,0.0,0.0,0.0,0.1,0.376705003018,-0.636448227527,-9.81946783377,0.1,0.0,0.0,0.0,0.1,0.0,0.0,0.0,0.1
1474475422286127897,668,1474475422294488906,sparus2,0.0314972233142,0.0275331439432,0.160020262356,0.98622683321,0.1,0.0,0.0,0.0,0.1,0.0,0.0,0.0,0.1,-0.0267675396921,0.0781291783449,-0.0576066533182,0.1,0.0,0.0,0.0,0.1,0.0,0.0,0.0,0.1,0.423978171742,-0.46373277583,-9.81817431955,0.1,0.0,0.0,0.0,0.1,0.0,0.0,0.0,0.1
1474475422396858303,669,1474475422397173881,sparus2,0.029042280422,0.0304445651024,0.156805209128,0.986732892324,0.1,0.0,0.0,0.0,0.1,0.0,0.0,0.0,0.1,-0.0235891522588,0.0663427968298,-0.0202354683587,0.1,0.0,0.0,0.0,0.1,0.0,0.0,0.0,0.1,0.464339814368,-0.365263018592,-9.78583235084,0.1,0.0,0.0,0.0,0.1,0.0,0.0,0.0,0.1
1474475422487390009,670,1474475422493683099,sparus2,0.0270565890306,0.0316577604222,0.154803389441,0.987067190121,0.1,0.0,0.0,0.0,0.1,0.0,0.0,0.0,0.1,-0.0199253594466,0.0412583683267,0.00653315990219,0.1,0.0,0.0,0.0,0.1,0.0,0.0,0.0,0.1,0.380062076486,-0.288607941299,-9.70851244292,0.1,0.0,0.0,0.0,0.1,0.0,0.0,0.0,0.1
1474475422587977995,671,1474475422591715097,sparus2,0.0256539627034,0.0312498303276,0.153009131693,0.987397350574,0.1,0.0,0.0,0.0,0.1,0.0,0.0,0.0,0.1,-0.0124336049097,0.00801286278768,0.0110541970145,0.1,0.0,0.0,0.0,0.1,0.0,0.0,0.0,0.1,0.348111599464,-0.247975070849,-9.82660723218,0.1,0.0,0.0,0.0,0.1,0.0,0.0,0.0,0.1
1474475422678581672,672,1474475422688505887,sparus2,0.0256293725579,0.0301646004374,0.151239780883,0.987704288146,0.1,0.0,0.0,0.0,0.1,0.0,0.0,0.0,0.1,0.00551272510611,-0.0191579318065,-0.00683368855369,0.1,0.0,0.0,0.0,0.1,0.0,0.0,0.0,0.1,0.413514099331,-0.207771718266,-9.49586932019,0.1,0.0,0.0,0.0,0.1,0.0,0.0,0.0,0.1
1474475422789249769,673,1474475422793266057,sparus2,0.0265680100208,0.0282327944261,0.148691780963,0.988123375109,0.1,0.0,0.0,0.0,0.1,0.0,0.0,0.0,0.1,0.00650928143856,-0.0498941453444,-0.0263929950213,0.1,0.0,0.0,0.0,0.1,0.0,0.0,0.0,0.1,0.668621308767,-0.711568550801,-9.79139049739,0.1,0.0,0.0,0.0,0.1,0.0,0.0,0.0,0.1
1474475422879792655,674,1474475422889167070,sparus2,0.0280428208766,0.0250347563364,0.14603317737,0.988565208916,0.1,0.0,0.0,0.0,0.1,0.0,0.0,0.0,0.1,0.00184517042109,-0.0796519100923,-0.0423392511454,0.1,0.0,0.0,0.0,0.1,0.0,0.0,0.0,0.1,0.567224426974,-0.961817928604,-9.78595536479,0.1,0.0,0.0,0.0,0.1,0.0,0.0,0.0,0.1
1474475422980414501,675,1474475422986246109,sparus2,0.0302654427431,0.0201765277823,0.142556944724,0.989118005201,0.1,0.0,0.0,0.0,0.1,0.0,0.0,0.0,0.1,0.0348575996498,-0.080962612816,-0.0516223908348,0.1,0.0,0.0,0.0,0.1,0.0,0.0,0.0,0.1,-0.626429423221,-0.489602555849,-9.37246118821,0.1,0.0,0.0,0.0,0.1,0.0,0.0,0.0,0.1
1474475423081002411,676,1474475423088861942,sparus2,0.0290615040779,0.0177134294044,0.134498785033,0.990329107027,0.1,0.0,0.0,0.0,0.1,0.0,0.0,0.0,0.1,0.0282276986275,-0.0702444954445,-0.0316069408732,0.1,0.0,0.0,0.0,0.1,0.0,0.0,0.0,0.1,0.814605648823,0.525689146789,-9.74603721425,0.1,0.0,0.0,0.0,0.1,0.0,0.0,0.0,0.1
1474475423181565266,677,1474475423187616109,sparus2,0.0329572173339,0.0157380420946,0.135367090038,0.990122157509,0.1,0.0,0.0,0.0,0.1,0.0,0.0,0.0,0.1,0.0434130623176,-0.0472789241468,-0.00203242698977,0.1,0.0,0.0,0.0,0.1,0.0,0.0,0.0,0.1,0.0716620632572,-1.92034353566,-10.2912640794,0.1,0.0,0.0,0.0,0.1,0.0,0.0,0.0,0.1
1474475423282169654,678,1474475423285378932,sparus2,0.0355565470399,0.0147785355631,0.135369278961,0.990046708576,0.1,0.0,0.0,0.0,0.1,0.0,0.0,0.0,0.1,0.058603612008,-0.0336433483933,0.0413995476263,0.1,0.0,0.0,0.0,0.1,0.0,0.0,0.0,0.1,0.586338744844,-0.384613792057,-10.0428305963,0.1,0.0,0.0,0.0,0.1,0.0,0.0,0.0,0.1
1474475423382754501,679,1474475423382661104,sparus2,0.0356842857679,0.0119898150879,0.134700637012,0.990171002641,0.1,0.0,0.0,0.0,0.1,0.0,0.0,0.0,0.1,0.0353657163783,-0.0059237168418,0.0807552939603,0.1,0.0,0.0,0.0,0.1,0.0,0.0,0.0,0.1,-1.78394897488,0.981474636607,-11.4191290735,0.1,0.0,0.0,0.0,0.1,0.0,0.0,0.0,0.1
1474475423483634330,680,1474475423485606908,sparus2,0.0369211842549,0.0137381334703,0.138396841201,0.989593049787,0.1,0.0,0.0,0.0,0.1,0.0,0.0,0.0,0.1,0.0266329757352,0.0277084929517,0.0938339907676,0.1,0.0,0.0,0.0,0.1,0.0,0.0,0.0,0.1,0.50253767875,-0.881536615353,-10.908804053,0.1,0.0,0.0,0.0,0.1,0.0,0.0,0.0,0.1
1474475423584257790,681,1474475423588781118,sparus2,0.0375451639647,0.0142688355562,0.140559867997,0.989257137707,0.1,0.0,0.0,0.0,0.1,0.0,0.0,0.0,0.1,0.0557051394855,0.0473448701413,0.131212676926,0.1,0.0,0.0,0.0,0.1,0.0,0.0,0.0,0.1,-1.09165944889,1.08362913905,-10.866118144,0.1,0.0,0.0,0.0,0.1,0.0,0.0,0.0,0.1
1474475423674815308,682,1474475423681901931,sparus2,0.039413902417,0.014862940397,0.140893300957,0.989128260159,0.1,0.0,0.0,0.0,0.1,0.0,0.0,0.0,0.1,0.0795361104984,0.0735039794119,0.0954674762354,0.1,0.0,0.0,0.0,0.1,0.0,0.0,0.0,0.1,-1.69416189298,0.569943885969,-8.52358489243,0.1,0.0,0.0,0.0,0.1,0.0,0.0,0.0,0.1
1474475423785497723,683,1474475423785207986,sparus2,0.0445024098364,0.0184811502311,0.146147521748,0.988088500334,0.1,0.0,0.0,0.0,0.1,0.0,0.0,0.0,0.1,0.0851581643381,0.0670148085899,0.0879543565246,0.1,0.0,0.0,0.0,0.1,0.0,0.0,0.0,0.1,-0.0887275716686,-1.66739440688,-9.17892899818,0.1,0.0,0.0,0.0,0.1,0.0,0.0,0.0,0.1
1474475423886788710,684,1474475423882394075,sparus2,0.0446083778687,0.0220473864702,0.141959301978,0.98862104062,0.1,0.0,0.0,0.0,0.1,0.0,0.0,0.0,0.1,0.071779589181,0.0444648039054,0.046855406181,0.1,0.0,0.0,0.0,0.1,0.0,0.0,0.0,0.1,0.979007528102,0.185839657496,-9.86992284479,0.1,0.0,0.0,0.0,0.1,0.0,0.0,0.0,0.1
1474475423977308373,685,1474475423980043888,sparus2,0.0477358265353,0.0219241302521,0.140865131608,0.988634228658,0.1,0.0,0.0,0.0,0.1,0.0,0.0,0.0,0.1,0.0780218422137,0.0229847774331,0.0163190147036,0.1,0.0,0.0,0.0,0.1,0.0,0.0,0.0,0.1,-0.823073544571,-0.367072128314,-9.03005925431,0.1,0.0,0.0,0.0,0.1,0.0,0.0,0.0,0.1
1474475424077917101,686,1474475424082243919,sparus2,0.0472418102483,0.0198362325659,0.135109652871,0.98950498581,0.1,0.0,0.0,0.0,0.1,0.0,0.0,0.0,0.1,0.0357560861266,-0.000790020102297,-0.00432205962285,0.1,0.0,0.0,0.0,0.1,0.0,0.0,0.0,0.1,-1.16331402054,1.21965202528,-10.9453408244,0.1,0.0,0.0,0.0,0.1,0.0,0.0,0.0,0.1
1474475424178444020,687,1474475424180249929,sparus2,0.04872359069,0.0220074363572,0.13468739751,0.989444788458,0.1,0.0,0.0,0.0,0.1,0.0,0.0,0.0,0.1,0.0165010881137,-0.0278718006659,0.00339879478908,0.1,0.0,0.0,0.0,0.1,0.0,0.0,0.0,0.1,2.92469728249,-1.7188719349,-9.6085252579,0.1,0.0,0.0,0.0,0.1,0.0,0.0,0.0,0.1
1474475424268998207,688,1474475424278048992,sparus2,0.0519780003292,0.0279087170721,0.136541484048,0.988876035774,0.1,0.0,0.0,0.0,0.1,0.0,0.0,0.0,0.1,0.0137415727527,-0.0227058505157,0.0317726781779,0.1,0.0,0.0,0.0,0.1,0.0,0.0,0.0,0.1,2.75968589374,-2.18553821289,-8.97707035242,0.1,0.0,0.0,0.0,0.1,0.0,0.0,0.0,0.1
1474475424369556521,689,1474475424376178026,sparus2,0.0548290369204,0.023230331013,0.139307283048,0.988457186388,0.1,0.0,0.0,0.0,0.1,0.0,0.0,0.0,0.1,0.0261694733781,-0.0520633615526,0.0268336975193,0.1,0.0,0.0,0.0,0.1,0.0,0.0,0.0,0.1,-1.48039677381,-1.64614905891,-8.78572251165,0.1,0.0,0.0,0.0,0.1,0.0,0.0,0.0,0.1
1474475424480336225,690,1474475424482584953,sparus2,0.0554053882772,0.0201039474573,0.13933407725,0.988489802256,0.1,0.0,0.0,0.0,0.1,0.0,0.0,0.0,0.1,0.000697434032335,-0.0318138114567,0.0124597987363,0.1,0.0,0.0,0.0,0.1,0.0,0.0,0.0,0.1,-0.805677121916,-1.12957833556,-9.25177837594,0.1,0.0,0.0,0.0,0.1,0.0,0.0,0.0,0.1
1474475424570898025,691,1474475424577092885,sparus2,0.0559944581367,0.017857932859,0.140385211838,0.988351004041,0.1,0.0,0.0,0.0,0.1,0.0,0.0,0.0,0.1,-0.0199323497099,-0.0325925180692,0.00288487199565,0.1,0.0,0.0,0.0,0.1,0.0,0.0,0.0,0.1,-0.379068313693,-1.79284908152,-8.36802173829,0.1,0.0,0.0,0.0,0.1,0.0,0.0,0.0,0.1
1474475424671491034,692,1474475424674201011,sparus2,0.056840597842,0.0188330911115,0.141497411082,0.98812597566,0.1,0.0,0.0,0.0,0.1,0.0,0.0,0.0,0.1,-0.0469155292682,-0.0340934923809,-0.00446060807115,0.1,0.0,0.0,0.0,0.1,0.0,0.0,0.0,0.1,1.08368142381,-2.30582950632,-9.31864815499,0.1,0.0,0.0,0.0,0.1,0.0,0.0,0.0,0.1
1474475424772087026,693,1474475424777470111,sparus2,0.0538950692077,0.0161259622174,0.141965738293,0.988271725796,0.1,0.0,0.0,0.0,0.1,0.0,0.0,0.0,0.1,-0.0717357971655,-0.0252566746701,0.0105458360164,0.1,0.0,0.0,0.0,0.1,0.0,0.0,0.0,0.1,-0.525105431874,-1.32044161914,-9.29485354266,0.1,0.0,0.0,0.0,0.1,0.0,0.0,0.0,0.1
1474475424872662586,694,1474475424875076055,sparus2,0.0519089466653,0.0138538061424,0.142552985939,0.988327971633,0.1,0.0,0.0,0.0,0.1,0.0,0.0,0.0,0.1,-0.0425666867394,-0.0308808591083,0.0343121043195,0.1,0.0,0.0,0.0,0.1,0.0,0.0,0.0,0.1,-0.122114329332,-0.893590829844,-10.0716256971,0.1,0.0,0.0,0.0,0.1,0.0,0.0,0.0,0.1
1474475424963227143,695,1474475424972709894,sparus2,0.0511042506138,0.0125383727085,0.144743411917,0.988069071212,0.1,0.0,0.0,0.0,0.1,0.0,0.0,0.0,0.1,-0.0150326297255,-0.0172238700999,0.0695683603568,0.1,0.0,0.0,0.0,0.1,0.0,0.0,0.0,0.1,0.0186375124228,-0.859987253311,-10.2810794248,0.1,0.0,0.0,0.0,0.1,0.0,0.0,0.0,0.1
1474475425074272756,696,1474475425072906017,sparus2,0.052389056977,0.0120514011512,0.148690143765,0.987421587564,0.1,0.0,0.0,0.0,0.1,0.0,0.0,0.0,0.1,0.0262051249651,0.00153103917682,0.0965905433437,0.1,0.0,0.0,0.0,0.1,0.0,0.0,0.0,0.1,-0.263291029473,-0.975917306989,-10.0977181467,0.1,0.0,0.0,0.0,0.1,0.0,0.0,0.0,0.1
1474475425164814647,697,1474475425172687053,sparus2,0.05399901906,0.0131003062455,0.153536094842,0.986579523149,0.1,0.0,0.0,0.0,0.1,0.0,0.0,0.0,0.1,0.0475292419673,0.0266485947303,0.130283421395,0.1,0.0,0.0,0.0,0.1,0.0,0.0,0.0,0.1,0.0336313676415,-0.524250167095,-8.78900408087,0.1,0.0,0.0,0.0,0.1,0.0,0.0,0.0,0.1
1474475425265439904,698,1474475425270405054,sparus2,0.0594404887349,0.0165229193528,0.160157070069,0.98516167929,0.1,0.0,0.0,0.0,0.1,0.0,0.0,0.0,0.1,0.110991917936,0.0643213705275,0.141530407955,0.1,0.0,0.0,0.0,0.1,0.0,0.0,0.0,0.1,0.0757106525847,-1.3702501525,-9.75598065345,0.1,0.0,0.0,0.0,0.1,0.0,0.0,0.0,0.1
1474475425366216524,699,1474475425368236064,sparus2,0.0642049710349,0.0209055586276,0.16675564186,0.983683503583,0.1,0.0,0.0,0.0,0.1,0.0,0.0,0.0,0.1,0.108150810938,0.0860023066275,0.139645762153,0.1,0.0,0.0,0.0,0.1,0.0,0.0,0.0,0.1,0.0706440880274,-1.37160744876,-9.91299547784,0.1,0.0,0.0,0.0,0.1,0.0,0.0,0.0,0.1
1474475425467288710,700,1474475425471051931,sparus2,0.0683034633706,0.0256627444418,0.172192208267,0.982357319844,0.1,0.0,0.0,0.0,0.1,0.0,0.0,0.0,0.1,0.0927550370543,0.0890483108385,0.124176737236,0.1,0.0,0.0,0.0,0.1,0.0,0.0,0.0,0.1,0.257698290019,-1.41539849487,-9.85514959797,0.1,0.0,0.0,0.0,0.1,0.0,0.0,0.0,0.1
1474475425567855750,701,1474475425568953037,sparus2,0.0710169212278,0.0290606912776,0.176473695263,0.981309893969,0.1,0.0,0.0,0.0,0.1,0.0,0.0,0.0,0.1,0.0621757461056,0.0678800938995,0.104120919394,0.1,0.0,0.0,0.0,0.1,0.0,0.0,0.0,0.1,0.318530994804,-1.51358674331,-9.67398604114,0.1,0.0,0.0,0.0,0.1,0.0,0.0,0.0,0.1
1474475425658406873,702,1474475425666407108,sparus2,0.0726612670564,0.0306537094147,0.179332251652,0.980622574636,0.1,0.0,0.0,0.0,0.1,0.0,0.0,0.0,0.1,0.0319314568895,0.0317124227162,0.0755911301936,0.1,0.0,0.0,0.0,0.1,0.0,0.0,0.0,0.1,0.362750656235,-1.59975390409,-9.63429256412,0.1,0.0,0.0,0.0,0.1,0.0,0.0,0.0,0.1
1474475425759011445,703,1474475425764549016,sparus2,0.0728132394772,0.0311512320774,0.180884060582,0.980310557693,0.1,0.0,0.0,0.0,0.1,0.0,0.0,0.0,0.1,-0.00541404629694,0.00896748276748,0.0449468164572,0.1,0.0,0.0,0.0,0.1,0.0,0.0,0.0,0.1,0.431005163536,-1.68021381477,-9.66480711806,0.1,0.0,0.0,0.0,0.1,0.0,0.0,0.0,0.1
1474475425869663572,704,1474475425868453025,sparus2,0.0713063804728,0.0308819776701,0.181290228909,0.980354811515,0.1,0.0,0.0,0.0,0.1,0.0,0.0,0.0,0.1,-0.0414527361935,-0.00328168968545,0.0190120287704,0.1,0.0,0.0,0.0,0.1,0.0,0.0,0.0,0.1,0.452138620849,-1.69936573365,-9.68805921464,0.1,0.0,0.0,0.0,0.1,0.0,0.0,0.0,0.1
1474475425960169007,705,1474475425965518951,sparus2,0.0679163653221,0.0308839122837,0.180646956423,0.980714142051,0.1,0.0,0.0,0.0,0.1,0.0,0.0,0.0,0.1,-0.079439508673,0.00978509462094,-0.00238577086109,0.1,0.0,0.0,0.0,0.1,0.0,0.0,0.0,0.1,0.425261461857,-1.61711709291,-9.74317424226,0.1,0.0,0.0,0.0,0.1,0.0,0.0,0.0,0.1
1474475426061932958,706,1474475426063143968,sparus2,0.0629259356551,0.0311548204149,0.179859717565,0.981183054167,0.1,0.0,0.0,0.0,0.1,0.0,0.0,0.0,0.1,-0.106375291106,0.022857304884,-0.00255606483543,0.1,0.0,0.0,0.0,0.1,0.0,0.0,0.0,0.1,0.423747080383,-1.44001392121,-9.78189586071,0.1,0.0,0.0,0.0,0.1,0.0,0.0,0.0,0.1
1474475426162547176,707,1474475426165410995,sparus2,0.0557450941885,0.0321595867503,0.179835723309,0.981589200265,0.1,0.0,0.0,0.0,0.1,0.0,0.0,0.0,0.1,-0.136442591215,0.0477121433053,0.0152231156354,0.1,0.0,0.0,0.0,0.1,0.0,0.0,0.0,0.1,0.407407447976,-1.23420416318,-9.82861914538,0.1,0.0,0.0,0.0,0.1,0.0,0.0,0.0,0.1
