% frame a, frame b, inliers, ax, ay, az, aqx, aqy, aqz, aqw, bx, by, bz, bqx, bqy, bqz, bqw
37,113,240,-52.1722,-34.867,-0.384805,0.00334002,0.209064,0.919784,-0.332081,-52.3732,-34.4884,-0.291985,-0.0808043,-0.285264,-0.806534,0.511466
227,387,123,-44.0122,-30.7529,-1.45157,-0.00872207,0.256896,0.958534,0.123046,-45.1333,-29.9875,-1.65898,-0.175448,-0.0492342,-0.141464,0.973027
37,244,220,-52.1722,-34.867,-0.384805,0.00334002,0.209064,0.919784,-0.332081,-52.3086,-34.3111,-0.429387,-0.091313,-0.169559,-0.705132,0.682423
36,112,277,-51.4333,-34.4126,-0.393057,-0.0504882,0.260547,0.925566,-0.269988,-51.7388,-33.9652,-0.780262,-0.0116067,0.277413,0.871458,-0.404313
111,243,86,-51.251,-33.5574,-0.808014,-0.0977145,0.244681,0.925285,-0.27282,-52.1488,-33.4393,-0.803546,-0.0769297,-0.204642,-0.748174,0.62645
43,182,8,-53.5568,-37.0597,0.499123,-0.0757955,-0.223977,-0.739955,0.629727,-53.1043,-36.4702,0.234564,0.0164119,-0.193711,-0.455337,0.868835
118,182,5,-52.8894,-36.5266,0.316195,-0.0259269,-0.202162,-0.743811,0.636555,-53.1043,-36.4702,0.234564,0.0164119,-0.193711,-0.455337,0.868835
87,152,47,-37.8932,-39.044,0.685477,-0.00676033,0.167043,0.630736,0.757775,-37.7967,-38.7465,0.662925,-0.0254663,0.198405,0.632515,0.748273
100,461,56,-44.485,-34.1607,-0.193745,-0.0319978,0.209117,0.971267,0.109024,-44.5239,-33.1524,-0.500375,-0.124475,-0.178502,-0.708285,0.671547
382,449,148,-48.9939,-30.4463,-1.7399,-0.227626,0.0141508,0.288795,0.92983,-49.3648,-29.8282,-1.94041,-0.122199,-0.118708,-0.00784143,0.98535
169,310,329,-46.0037,-32.371,-0.743848,-0.00603534,0.229706,0.9639,0.134519,-46.79,-32.6579,-0.688634,-0.116959,0.151687,0.607104,0.771191
255,465,267,-46.486,-37.182,0.809893,-0.101874,-0.0233663,-0.0341183,0.993937,-45.2485,-36.3584,0.718614,-0.124297,-0.182981,-0.763734,0.606447
314,387,6,-45.264,-30.9192,-1.60085,-0.1705,0.0249971,0.123936,0.977213,-45.1333,-29.9875,-1.65898,-0.175448,-0.0492342,-0.141464,0.973027
230,384,264,-46.6033,-30.0646,-1.51562,0.0271972,0.236615,0.96538,0.10637,-47.9806,-29.7805,-1.83098,-0.193671,-0.0730697,0.0892198,0.974265
71,338,29,-42.8128,-43.0618,2.44091,-0.0573998,0.0837737,-0.096585,0.990131,-41.8497,-43.066,2.32593,-0.0871237,-0.0422919,-0.796078,0.597395
225,317,5,-42.388,-30.9589,-1.37828,0.0491967,0.221247,0.966925,0.116983,-43.531,-30.7895,-1.49547,-0.185081,-0.0079705,-0.0817368,0.979286
36,244,239,-51.4333,-34.4126,-0.393057,-0.0504882,0.260547,0.925566,-0.269988,-52.3086,-34.3111,-0.429387,-0.091313,-0.169559,-0.705132,0.682423
102,308,54,-46.2225,-33.9531,-0.208146,-0.00855583,0.209996,0.970395,0.119003,-47.0557,-33.6858,-0.308398,-0.153782,0.0952679,0.587056,0.789076
228,313,86,-45.277,-30.4219,-1.4672,0.0395198,0.242961,0.960386,0.13064,-46.0857,-31.076,-1.49698,-0.168344,0.0601201,0.276,0.944388
129,299,157,-50.0723,-40.4024,1.55446,-0.0726645,-0.0624394,-0.105913,0.989749,-49.6024,-41.4449,1.78348,-0.079774,0.0834245,0.632645,0.765792
77,272,156,-39.2913,-43.452,1.85912,-0.0351103,0.146821,0.454582,0.877819,-38.8305,-42.04,1.53509,-0.128442,-0.0847454,-0.772825,0.61568
111,177,76,-51.251,-33.5574,-0.808014,-0.0977145,0.244681,0.925285,-0.27282,-51.7788,-32.8024,-1.06625,0.00705399,0.234743,0.840536,-0.488206
111,178,67,-51.251,-33.5574,-0.808014,-0.0977145,0.244681,0.925285,-0.27282,-52.0782,-33.1328,-0.935965,-0.0172683,-0.224848,-0.827176,0.514708
41,117,70,-53.3374,-36.3967,0.321497,-0.0596798,-0.220705,-0.779255,0.583515,-52.9391,-36.3143,0.340553,-0.0378282,-0.19581,-0.748661,0.632245
40,115,166,-53.0723,-35.8243,0.0372042,-0.0818771,-0.236257,-0.7805,0.572973,-52.7473,-35.5896,0.158143,-0.0732932,-0.218802,-0.749625,0.620336
42,117,73,-53.4235,-36.6154,0.3906,-0.0739192,-0.205385,-0.762171,0.609465,-52.9391,-36.3143,0.340553,-0.0378282,-0.19581,-0.748661,0.632245
84,150,185,-38.0239,-40.1864,1.1011,-0.0110404,0.204302,0.622968,0.755016,-38.0982,-39.9739,1.10258,0.0318691,0.149165,0.581116,0.799398
231,382,103,-47.653,-29.8263,-1.53384,0.013167,0.249186,0.960059,0.126567,-48.9939,-30.4463,-1.7399,-0.227626,0.0141508,0.288795,0.92983
232,382,70,-48.0785,-29.6636,-1.64774,0.00436276,0.242701,0.9631,0.116255,-48.9939,-30.4463,-1.7399,-0.227626,0.0141508,0.288795,0.92983
161,322,55,-39.8199,-33.965,-0.631817,0.0378028,0.230788,0.946205,0.223615,-40.2766,-32.5311,-1.31415,-0.186916,-0.0402556,-0.562618,0.804303
169,309,291,-46.0037,-32.371,-0.743848,-0.00603534,0.229706,0.9639,0.134519,-46.8636,-33.0128,-0.597856,-0.146032,0.1516,0.586828,0.781873
145,270,174,-39.4018,-42.2908,1.63706,-0.0984014,0.162257,0.358636,0.913986,-38.6959,-41.1743,1.33604,-0.15269,-0.110835,-0.735565,0.65065
39,115,57,-52.9235,-35.4462,-0.0788471,-0.0555209,-0.232486,-0.825076,0.511974,-52.7473,-35.5896,0.158143,-0.0732932,-0.218802,-0.749625,0.620336
82,147,58,-38.1163,-41.205,1.4814,-0.000726279,0.168509,0.6301,0.758009,-38.4404,-41.0158,1.31584,-0.0135743,0.163146,0.514119,0.841951
6,144,172,-39.5975,-43.1203,1.94968,-0.00106487,0.148593,0.584708,0.797518,-40.1174,-42.555,1.74945,0.0308208,0.135567,0.264684,0.954261
38,114,177,-52.7005,-35.2512,-0.247365,0.0216212,0.230504,0.853712,-0.466451,-52.6924,-35.237,0.130643,-0.0735905,-0.228744,-0.760945,0.60268
59,297,99,-50.2627,-41.9093,1.93963,-0.0921646,-0.0948007,-0.0802414,0.987968,-49.7707,-42.5146,2.16069,-0.0489203,0.069152,0.63237,0.770022
59,296,87,-50.2627,-41.9093,1.93963,-0.0921646,-0.0948007,-0.0802414,0.987968,-49.6976,-43.0625,2.26579,-0.0423617,0.0909368,0.736264,0.669217
229,385,103,-46.0772,-30.1574,-1.46974,0.0162834,0.251672,0.959281,0.127184,-47.1191,-29.7042,-1.94524,-0.186548,-0.048962,-0.00528592,0.981211
128,299,22,-50.4998,-40.2895,1.51917,-0.0873766,-0.0858645,-0.120973,0.985068,-49.6024,-41.4449,1.78348,-0.079774,0.0834245,0.632645,0.765792
258,400,106,-44.2865,-37.3423,1.03807,-0.082252,-0.0579172,-0.0422917,0.994028,-42.8564,-37.0403,0.669515,-0.113246,-0.139022,-0.788484,0.588337
177,242,459,-51.7788,-32.8024,-1.06625,0.00705399,0.234743,0.840536,-0.488206,-51.9781,-32.7144,-1.0953,-0.0951481,-0.237031,-0.758483,0.599555
112,243,169,-51.7388,-33.9652,-0.780262,-0.0116067,0.277413,0.871458,-0.404313,-52.1488,-33.4393,-0.803546,-0.0769297,-0.204642,-0.748174,0.62645
153,209,212,-37.553,-37.7749,0.286325,-0.0115926,0.166568,0.643919,0.746651,-37.777,-37.7584,0.380234,-0.0536344,0.192682,0.574335,0.793811
117,181,111,-52.9391,-36.3143,0.340553,-0.0378282,-0.19581,-0.748661,0.632245,-53.1627,-36.2019,0.0669854,-0.102935,-0.132012,-0.613335,0.771879
38,180,286,-52.7005,-35.2512,-0.247365,0.0216212,0.230504,0.853712,-0.466451,-52.9401,-35.013,-0.106119,-0.0587177,-0.212736,-0.747349,0.62671
175,240,139,-50.9151,-31.7773,-1.286,-0.0184213,0.217288,0.918848,-0.328885,-51.4421,-31.1832,-1.53303,-0.0467802,-0.261293,-0.803345,0.53308
287,478,125,-45.8182,-45.5906,3.0721,0.0137362,0.100522,0.990349,0.0944235,-46.9919,-44.6829,2.72726,-0.101735,-0.0553422,-0.394832,0.911425
288,477,82,-46.288,-45.5642,3.08309,-0.00750358,0.132187,0.984343,0.11636,-47.14,-44.4238,2.74759,-0.0255112,-0.0845572,-0.427188,0.899839
289,415,53,-46.8346,-45.4826,3.09847,0.0166464,0.139221,0.984749,0.103007,-46.8002,-45.1311,2.90983,-0.0133408,0.150522,0.984997,-0.083342
194,403,56,-44.6498,-39.2148,1.50066,-0.0825113,0.0154374,-0.0994197,0.991499,-43.4756,-39.2433,1.34558,-0.111668,-0.139301,-0.790238,0.586216
226,387,10,-43.3806,-30.8839,-1.45738,0.00716656,0.230337,0.967382,0.105189,-45.1333,-29.9875,-1.65898,-0.175448,-0.0492342,-0.141464,0.973027
262,331,171,-41.0994,-37.9507,0.771593,-0.102281,0.044819,-0.119817,0.986496,-40.3452,-37.2396,0.646279,-0.150384,-0.114376,-0.784042,0.591254
40,439,93,-53.0723,-35.8243,0.0372042,-0.0818771,-0.236257,-0.7805,0.572973,-53.8949,-37.024,0.497075,-0.104307,0.048274,0.623955,0.772962
198,333,91,-42.2185,-39.6393,1.45216,-0.119723,-0.0245534,-0.09402,0.98804,-41.0624,-39.2087,1.34725,-0.138711,-0.112413,-0.781664,0.597598
251,303,139,-49.3536,-36.8577,0.694998,-0.126947,-0.0384345,-0.0941222,0.986685,-48.6527,-37.797,0.977516,-0.0755248,0.0508654,0.583765,0.806801
156,210,69,-37.3648,-36.2456,-0.245481,0.0236302,0.183908,0.793789,0.579239,-37.3364,-36.2988,-0.32978,-0.0679232,0.215296,0.611819,0.758097
7,271,56,-39.5296,-42.9371,2.05112,-0.0405996,0.12982,0.601405,0.787281,-38.8271,-41.7332,1.52347,-0.146765,-0.0591819,-0.757229,0.633689
42,182,6,-53.4235,-36.6154,0.3906,-0.0739192,-0.205385,-0.762171,0.609465,-53.1043,-36.4702,0.234564,0.0164119,-0.193711,-0.455337,0.868835
112,179,79,-51.7388,-33.9652,-0.780262,-0.0116067,0.277413,0.871458,-0.404313,-52.3132,-33.4565,-0.747124,-0.0250823,-0.244723,-0.797121,0.551435
25,463,25,-43.928,-35.883,0.600882,0.0406784,0.166591,0.976917,0.12738,-44.7062,-34.6487,-0.0314343,-0.0819216,-0.17313,-0.751582,0.631221
315,387,81,-44.8802,-30.801,-1.62612,-0.149456,-0.000821891,0.0763818,0.985813,-45.1333,-29.9875,-1.65898,-0.175448,-0.0492342,-0.141464,0.973027
285,348,58,-44.2469,-45.8712,2.94701,0.0271299,0.11147,0.987504,0.108048,-44.1895,-45.8613,2.77329,0.000462819,0.141624,0.985942,-0.0886607
284,347,72,-43.6874,-45.9352,2.87183,0.0152722,0.121099,0.991049,0.0540787,-43.6617,-45.6448,2.90209,-0.0216238,0.0612041,0.997852,-0.0088784
221,320,38,-39.6203,-31.7422,-1.33395,0.0894465,0.218781,0.956079,0.173342,-41.6363,-31.4781,-1.37836,-0.189692,-0.0449908,-0.167762,0.966358
315,388,93,-44.8802,-30.801,-1.62612,-0.149456,-0.000821891,0.0763818,0.985813,-44.8617,-30.0864,-1.67511,-0.158784,-0.0345794,-0.140662,0.97663
226,389,52,-43.3806,-30.8839,-1.45738,0.00716656,0.230337,0.967382,0.105189,-44.4993,-30.2683,-1.69864,-0.169774,-0.0359138,-0.131765,0.975974
160,325,125,-38.7997,-34.4624,-0.653171,0.0969891,0.199255,0.942248,0.251116,-39.815,-33.5978,-0.798209,-0.184049,-0.0740619,-0.671177,0.714257
222,320,46,-40.2111,-31.4851,-1.33469,0.0409324,0.241159,0.958841,0.144189,-41.6363,-31.4781,-1.37836,-0.189692,-0.0449908,-0.167762,0.966358
188,301,245,-49.44,-38.6495,1.02171,-0.0880283,-0.0703712,-0.0682763,0.991281,-49.1155,-39.477,1.26723,-0.0948765,0.0837404,0.596766,0.792374
42,438,84,-53.4235,-36.6154,0.3906,-0.0739192,-0.205385,-0.762171,0.609465,-54.0221,-37.4079,0.662827,-0.125252,0.0290145,0.594446,0.793791
223,319,52,-40.6001,-31.4441,-1.44059,0.0372668,0.212117,0.966642,0.138639,-42.5256,-31.0705,-1.43149,-0.177533,-0.0339269,-0.136736,0.973979
102,306,109,-46.2225,-33.9531,-0.208146,-0.00855583,0.209996,0.970395,0.119003,-47.3526,-34.8135,0.245836,-0.13546,0.0744801,0.618361,0.770541
313,457,74,-46.0857,-31.076,-1.49698,-0.168344,0.0601201,0.276,0.944388,-45.7091,-30.5577,-1.36805,-0.179292,-0.0869027,-0.471474,0.859078
37,440,97,-52.1722,-34.867,-0.384805,0.00334002,0.209064,0.919784,-0.332081,-53.5602,-35.839,0.0890166,-0.130481,0.0452711,0.573645,0.807377
37,441,74,-52.1722,-34.867,-0.384805,0.00334002,0.209064,0.919784,-0.332081,-53.2791,-35.2525,-0.0730488,-0.144862,0.0573509,0.573166,0.804492
229,453,16,-46.0772,-30.1574,-1.46974,0.0162834,0.251672,0.959281,0.127184,-46.9144,-30.0928,-1.7946,-0.169121,-0.108492,-0.14919,0.968179
385,453,47,-47.1191,-29.7042,-1.94524,-0.186548,-0.048962,-0.00528592,0.981211,-46.9144,-30.0928,-1.7946,-0.169121,-0.108492,-0.14919,0.968179
112,441,34,-51.7388,-33.9652,-0.780262,-0.0116067,0.277413,0.871458,-0.404313,-53.2791,-35.2525,-0.0730488,-0.144862,0.0573509,0.573166,0.804492
383,451,193,-48.3444,-29.9802,-1.87227,-0.146443,-0.0156585,0.180117,0.972557,-48.2935,-29.871,-1.84588,-0.202169,-0.0585547,-0.0964277,0.972831
285,481,19,-44.2469,-45.8712,2.94701,0.0271299,0.11147,0.987504,0.108048,-45.8657,-45.5296,3.07992,-0.0365879,-0.0699662,-0.199442,0.976724
283,346,98,-43.0957,-45.995,2.91331,0.0165669,0.130024,0.991289,0.0128458,-43.183,-45.5381,2.8847,0.032958,0.101364,0.976893,-0.185255
161,323,71,-39.8199,-33.965,-0.631817,0.0378028,0.230788,0.946205,0.223615,-40.149,-32.7473,-1.26483,-0.147853,-0.065826,-0.5669,0.807732
154,209,233,-37.5503,-37.5517,0.272584,-0.0122009,0.190903,0.632529,0.750542,-37.777,-37.7584,0.380234,-0.0536344,0.192682,0.574335,0.793811
117,182,94,-52.9391,-36.3143,0.340553,-0.0378282,-0.19581,-0.748661,0.632245,-53.1043,-36.4702,0.234564,0.0164119,-0.193711,-0.455337,0.868835
355,418,132,-49.276,-45.1698,3.00077,0.039667,0.123215,0.979966,0.151362,-48.9352,-45.1345,2.94327,0.0227428,0.128138,0.987356,0.0905058
184,370,198,-52.2861,-37.5585,0.778109,-0.112975,-0.143986,-0.245294,0.952017,-51.7581,-38.8979,1.00568,-0.104108,0.069705,0.59387,0.794746
53,364,74,-53.0927,-41.0756,1.5073,-0.0863679,-0.114451,-0.195724,0.970121,-52.452,-42.3978,2.02423,-0.064105,0.0977551,0.727952,0.675589
225,316,88,-42.388,-30.9589,-1.37828,0.0491967,0.221247,0.966925,0.116983,-44.2921,-30.6868,-1.48455,-0.148419,-0.043795,-0.0426208,0.987035
228,453,73,-45.277,-30.4219,-1.4672,0.0395198,0.242961,0.960386,0.13064,-46.9144,-30.0928,-1.7946,-0.169121,-0.108492,-0.14919,0.968179
386,453,10,-46.5159,-29.7474,-1.90087,-0.171723,-0.0359554,-0.0748863,0.981637,-46.9144,-30.0928,-1.7946,-0.169121,-0.108492,-0.14919,0.968179
71,337,189,-42.8128,-43.0618,2.44091,-0.0573998,0.0837737,-0.096585,0.990131,-41.7791,-42.5236,2.22809,-0.0999752,-0.0563945,-0.780609,0.614389
252,303,135,-48.86,-36.9069,0.738778,-0.118216,-0.0463808,-0.0822025,0.988492,-48.6527,-37.797,0.977516,-0.0755248,0.0508654,0.583765,0.806801
357,421,25,-50.4973,-44.7688,2.8846,0.00836101,0.123381,0.981115,0.148733,-51.0834,-44.7503,2.74658,-0.0192729,0.158277,0.982862,0.092517
151,207,73,-37.9695,-39.4903,0.926863,0.00503781,0.198439,0.614643,0.76342,-38.4907,-39.2304,0.863118,-0.00264269,0.146045,0.486629,0.861311
179,243,9,-52.3132,-33.4565,-0.747124,-0.0250823,-0.244723,-0.797121,0.551435,-52.1488,-33.4393,-0.803546,-0.0769297,-0.204642,-0.748174,0.62645
9,145,12,-39.3003,-42.2757,1.85039,-0.0753159,0.196744,0.581374,0.785891,-39.4018,-42.2908,1.63706,-0.0984014,0.162257,0.358636,0.913986
13,204,50,-38.5859,-40.2152,1.59084,-0.0984386,0.168263,0.550096,0.812029,-39.0566,-40.0065,1.17586,-0.116607,0.177942,0.372965,0.903126
348,481,51,-44.1895,-45.8613,2.77329,0.000462819,0.141624,0.985942,-0.0886607,-45.8657,-45.5296,3.07992,-0.0365879,-0.0699662,-0.199442,0.976724
88,152,27,-37.7292,-38.2924,0.461762,0.00656685,0.181758,0.642823,0.74411,-37.7967,-38.7465,0.662925,-0.0254663,0.198405,0.632515,0.748273
85,151,326,-37.9199,-39.6666,0.925855,-0.0293865,0.217837,0.63109,0.743915,-37.9695,-39.4903,0.926863,0.00503781,0.198439,0.614643,0.76342
178,243,20,-52.0782,-33.1328,-0.935965,-0.0172683,-0.224848,-0.827176,0.514708,-52.1488,-33.4393,-0.803546,-0.0769297,-0.204642,-0.748174,0.62645
176,241,112,-51.6276,-32.3752,-1.24594,0.0580145,0.223599,0.852777,-0.468412,-51.7748,-31.8186,-1.31722,-0.0969672,-0.243623,-0.743524,0.615156
41,116,74,-53.3374,-36.3967,0.321497,-0.0596798,-0.220705,-0.779255,0.583515,-52.8982,-36.029,0.308005,-0.0558351,-0.214535,-0.753662,0.618749
8,145,110,-39.4351,-42.6822,1.92542,-0.0676583,0.167879,0.57357,0.79891,-39.4018,-42.2908,1.63706,-0.0984014,0.162257,0.358636,0.913986
77,271,148,-39.2913,-43.452,1.85912,-0.0351103,0.146821,0.454582,0.877819,-38.8271,-41.7332,1.52347,-0.146765,-0.0591819,-0.757229,0.633689
143,271,11,-40.4207,-42.5142,1.77253,-8.69446e-05,0.0863453,0.179593,0.979944,-38.8271,-41.7332,1.52347,-0.146765,-0.0591819,-0.757229,0.633689
41,438,85,-53.3374,-36.3967,0.321497,-0.0596798,-0.220705,-0.779255,0.583515,-54.0221,-37.4079,0.662827,-0.125252,0.0290145,0.594446,0.793791
178,242,73,-52.0782,-33.1328,-0.935965,-0.0172683,-0.224848,-0.827176,0.514708,-51.9781,-32.7144,-1.0953,-0.0951481,-0.237031,-0.758483,0.599555
144,272,11,-40.1174,-42.555,1.74945,0.0308208,0.135567,0.264684,0.954261,-38.8305,-42.04,1.53509,-0.128442,-0.0847454,-0.772825,0.61568
113,244,192,-52.3732,-34.4884,-0.291985,-0.0808043,-0.285264,-0.806534,0.511466,-52.3086,-34.3111,-0.429387,-0.091313,-0.169559,-0.705132,0.682423
41,181,11,-53.3374,-36.3967,0.321497,-0.0596798,-0.220705,-0.779255,0.583515,-53.1627,-36.2019,0.0669854,-0.102935,-0.132012,-0.613335,0.771879
83,149,96,-38.0369,-40.5897,1.27448,-0.0076179,0.201719,0.624993,0.754079,-38.2084,-40.5481,1.19898,0.00149832,0.131186,0.57337,0.808724
6,143,118,-39.5975,-43.1203,1.94968,-0.00106487,0.148593,0.584708,0.797518,-40.4207,-42.5142,1.77253,-8.69446e-05,0.0863453,0.179593,0.979944
353,416,50,-47.2809,-45.7473,2.96806,0.00467646,0.134611,0.983869,0.117731,-47.0252,-45.1518,2.96163,-0.00226029,0.174177,0.98293,-0.0592099
359,422,71,-51.3142,-44.5246,2.70763,-0.00674527,0.130176,0.968146,0.213779,-51.7521,-44.6614,2.63394,-0.0154506,0.148293,0.983471,0.102737
87,208,188,-37.8932,-39.044,0.685477,-0.00676033,0.167043,0.630736,0.757775,-38.1263,-38.6668,0.727223,0.00837951,0.150158,0.529045,0.835161
14,205,136,-38.3933,-39.815,1.45001,-0.107283,0.119724,0.631635,0.758415,-38.8313,-39.7798,1.0881,-0.0954253,0.114595,0.426899,0.891919
39,180,289,-52.9235,-35.4462,-0.0788471,-0.0555209,-0.232486,-0.825076,0.511974,-52.9401,-35.013,-0.106119,-0.0587177,-0.212736,-0.747349,0.62671
37,180,7,-52.1722,-34.867,-0.384805,0.00334002,0.209064,0.919784,-0.332081,-52.9401,-35.013,-0.106119,-0.0587177,-0.212736,-0.747349,0.62671
40,116,143,-53.0723,-35.8243,0.0372042,-0.0818771,-0.236257,-0.7805,0.572973,-52.8982,-36.029,0.308005,-0.0558351,-0.214535,-0.753662,0.618749
42,118,47,-53.4235,-36.6154,0.3906,-0.0739192,-0.205385,-0.762171,0.609465,-52.8894,-36.5266,0.316195,-0.0259269,-0.202162,-0.743811,0.636555
43,118,13,-53.5568,-37.0597,0.499123,-0.0757955,-0.223977,-0.739955,0.629727,-52.8894,-36.5266,0.316195,-0.0259269,-0.202162,-0.743811,0.636555
41,118,41,-53.3374,-36.3967,0.321497,-0.0596798,-0.220705,-0.779255,0.583515,-52.8894,-36.5266,0.316195,-0.0259269,-0.202162,-0.743811,0.636555
38,440,21,-52.7005,-35.2512,-0.247365,0.0216212,0.230504,0.853712,-0.466451,-53.5602,-35.839,0.0890166,-0.130481,0.0452711,0.573645,0.807377
42,437,91,-53.4235,-36.6154,0.3906,-0.0739192,-0.205385,-0.762171,0.609465,-54.2689,-37.9195,0.751522,-0.120538,0.0412338,0.584539,0.801302
172,379,128,-48.8653,-31.7174,-0.957384,-0.0231473,0.228455,0.965911,0.119536,-49.4781,-31.8265,-1.02518,-0.122504,0.0911485,0.63194,0.759827
107,377,181,-49.214,-33.2146,-0.131098,0.00628441,0.204634,0.967402,0.149057,-50.0337,-33.5644,-0.193434,-0.131815,0.0729674,0.600763,0.785101
138,336,114,-42.7039,-41.7224,1.88658,-0.0615909,0.0679788,-0.104035,0.990334,-41.5488,-41.3291,2.00149,-0.125195,-0.081882,-0.749735,0.644608
358,421,205,-50.7599,-44.73,2.7887,0.00500703,0.123902,0.980282,0.153851,-51.0834,-44.7503,2.74658,-0.0192729,0.158277,0.982862,0.092517
226,315,477,-43.3806,-30.8839,-1.45738,0.00716656,0.230337,0.967382,0.105189,-44.8802,-30.801,-1.62612,-0.149456,-0.000821891,0.0763818,0.985813
227,314,205,-44.0122,-30.7529,-1.45157,-0.00872207,0.256896,0.958534,0.123046,-45.264,-30.9192,-1.60085,-0.1705,0.0249971,0.123936,0.977213
102,307,491,-46.2225,-33.9531,-0.208146,-0.00855583,0.209996,0.970395,0.119003,-47.2552,-34.2797,0.0291888,-0.145004,0.095664,0.599077,0.781619
224,317,243,-41.9789,-31.0805,-1.40457,0.0591493,0.237759,0.96394,0.103878,-43.531,-30.7895,-1.49547,-0.185081,-0.0079705,-0.0817368,0.979286
29,305,110,-46.8846,-35.2871,0.601125,-0.0164517,0.207162,0.966437,0.151041,-47.7146,-36.0418,0.544748,-0.0953887,0.0593158,0.606261,0.787293
6,271,76,-39.5975,-43.1203,1.94968,-0.00106487,0.148593,0.584708,0.797518,-38.8271,-41.7332,1.52347,-0.146765,-0.0591819,-0.757229,0.633689
111,242,20,-51.251,-33.5574,-0.808014,-0.0977145,0.244681,0.925285,-0.27282,-51.9781,-32.7144,-1.0953,-0.0951481,-0.237031,-0.758483,0.599555
6,272,58,-39.5975,-43.1203,1.94968,-0.00106487,0.148593,0.584708,0.797518,-38.8305,-42.04,1.53509,-0.128442,-0.0847454,-0.772825,0.61568
85,207,5,-37.9199,-39.6666,0.925855,-0.0293865,0.217837,0.63109,0.743915,-38.4907,-39.2304,0.863118,-0.00264269,0.146045,0.486629,0.861311
129,298,83,-50.0723,-40.4024,1.55446,-0.0726645,-0.0624394,-0.105913,0.989749,-49.6463,-41.8702,2.04513,-0.0630462,0.0951713,0.643406,0.756965
316,389,108,-44.2921,-30.6868,-1.48455,-0.148419,-0.043795,-0.0426208,0.987035,-44.4993,-30.2683,-1.69864,-0.169774,-0.0359138,-0.131765,0.975974
230,383,153,-46.6033,-30.0646,-1.51562,0.0271972,0.236615,0.96538,0.10637,-48.3444,-29.9802,-1.87227,-0.146443,-0.0156585,0.180117,0.972557
247,372,120,-51.4655,-36.0034,0.2787,-0.148926,-0.136905,-0.248441,0.947288,-51.2123,-36.9472,0.633716,-0.0464277,0.0339893,0.588133,0.806715
287,351,183,-45.8182,-45.5906,3.0721,0.0137362,0.100522,0.990349,0.0944235,-45.8592,-45.9087,2.95784,0.0350028,0.105984,0.991349,0.069056
221,321,58,-39.6203,-31.7422,-1.33395,0.0894465,0.218781,0.956079,0.173342,-40.8416,-31.7228,-1.42925,-0.121253,-0.00870618,-0.35602,0.926538
114,180,9,-52.6924,-35.237,0.130643,-0.0735905,-0.228744,-0.760945,0.60268,-52.9401,-35.013,-0.106119,-0.0587177,-0.212736,-0.747349,0.62671
313,455,299,-46.0857,-31.076,-1.49698,-0.168344,0.0601201,0.276,0.944388,-46.2565,-30.4611,-1.56863,-0.170812,-0.0784026,-0.143422,0.971651
381,449,177,-49.2462,-30.7109,-1.56614,-0.170255,0.051202,0.434283,0.883057,-49.3648,-29.8282,-1.94041,-0.122199,-0.118708,-0.00784143,0.98535
240,443,13,-51.4421,-31.1832,-1.53303,-0.0467802,-0.261293,-0.803345,0.53308,-52.1215,-31.8898,-1.39275,-0.210612,0.0860489,0.602195,0.765245
179,441,61,-52.3132,-33.4565,-0.747124,-0.0250823,-0.244723,-0.797121,0.551435,-53.2791,-35.2525,-0.0730488,-0.144862,0.0573509,0.573166,0.804492
191,468,121,-47.097,-38.9152,1.45501,-0.0732328,-0.0586268,-0.0482179,0.994422,-45.8513,-38.5268,1.49487,-0.0859253,-0.142517,-0.777679,0.606235
229,452,98,-46.0772,-30.1574,-1.46974,0.0162834,0.251672,0.959281,0.127184,-47.5189,-30.173,-1.9786,-0.149767,-0.100835,-0.0867428,0.979734
230,451,184,-46.6033,-30.0646,-1.51562,0.0271972,0.236615,0.96538,0.10637,-48.2935,-29.871,-1.84588,-0.202169,-0.0585547,-0.0964277,0.972831
194,402,116,-44.6498,-39.2148,1.50066,-0.0825113,0.0154374,-0.0994197,0.991499,-43.3311,-38.7382,1.17815,-0.10615,-0.141311,-0.786146,0.592231
164,394,68,-41.1159,-33.4043,-0.726287,-0.0121679,0.219691,0.967616,0.123717,-42.365,-31.8137,-1.36135,-0.136269,-0.078749,-0.60405,0.781251
315,389,31,-44.8802,-30.801,-1.62612,-0.149456,-0.000821891,0.0763818,0.985813,-44.4993,-30.2683,-1.69864,-0.169774,-0.0359138,-0.131765,0.975974
26,464,176,-44.5166,-35.7416,0.593444,0.030371,0.195941,0.96974,0.142437,-44.8732,-35.142,0.20643,-0.106709,-0.184757,-0.776087,0.593436
239,443,220,-51.1404,-30.6673,-1.85373,-0.0374139,-0.277359,-0.810155,0.515092,-52.1215,-31.8898,-1.39275,-0.210612,0.0860489,0.602195,0.765245
231,383,34,-47.653,-29.8263,-1.53384,0.013167,0.249186,0.960059,0.126567,-48.3444,-29.9802,-1.87227,-0.146443,-0.0156585,0.180117,0.972557
226,388,138,-43.3806,-30.8839,-1.45738,0.00716656,0.230337,0.967382,0.105189,-44.8617,-30.0864,-1.67511,-0.158784,-0.0345794,-0.140662,0.97663
291,354,103,-48.2617,-45.151,2.84422,-0.0251091,0.129154,0.983598,0.12338,-48.4872,-45.3885,3.0088,0.0509503,0.150895,0.978526,0.13085
288,352,83,-46.288,-45.5642,3.08309,-0.00750358,0.132187,0.984343,0.11636,-46.5003,-45.909,2.96232,0.0121965,0.138989,0.988624,0.0561704
287,350,57,-45.8182,-45.5906,3.0721,0.0137362,0.100522,0.990349,0.0944235,-45.5359,-45.9437,2.86934,0.0388648,0.120604,0.991166,0.0391803
255,466,308,-46.486,-37.182,0.809893,-0.101874,-0.0233663,-0.0341183,0.993937,-45.4269,-36.7251,0.886512,-0.126384,-0.18088,-0.765271,0.604707
133,469,96,-47.1049,-40.8389,2.16615,-0.0780214,-0.075369,-0.0553723,0.992555,-46.392,-40.3773,1.8309,-0.0766344,-0.119842,-0.788558,0.598283
232,381,79,-48.0785,-29.6636,-1.64774,0.00436276,0.242701,0.9631,0.116255,-49.2462,-30.7109,-1.56614,-0.170255,0.051202,0.434283,0.883057
318,391,100,-43.1157,-30.9383,-1.47855,-0.159151,0.00303634,-0.112347,0.980836,-43.0868,-30.774,-1.6663,-0.103196,-0.0652551,-0.337285,0.933451
32,375,130,-49.1929,-34.7672,0.0857103,-0.0953796,0.193352,0.966025,0.142525,-50.3285,-34.7903,0.213978,-0.119056,0.0582334,0.601504,0.787799
124,368,262,-52.5331,-39.4653,1.21322,-0.0830725,-0.0896569,-0.252494,0.959848,-52.1902,-40.5422,1.55935,-0.0934082,0.0695939,0.62877,0.768817
26,463,123,-44.5166,-35.7416,0.593444,0.030371,0.195941,0.96974,0.142437,-44.7062,-34.6487,-0.0314343,-0.0819216,-0.17313,-0.751582,0.631221
313,456,245,-46.0857,-31.076,-1.49698,-0.168344,0.0601201,0.276,0.944388,-45.9097,-30.4892,-1.49001,-0.141163,-0.0885865,-0.241393,0.95601
44,435,52,-53.7069,-37.6635,0.722193,-0.0618738,-0.224975,-0.731051,0.641188,-54.5951,-38.9411,0.974674,-0.0956484,0.0303325,0.58898,0.801894
383,450,125,-48.3444,-29.9802,-1.87227,-0.146443,-0.0156585,0.180117,0.972557,-48.703,-29.8713,-1.74436,-0.161261,-0.0957893,-0.029646,0.981805
238,443,12,-51.0245,-30.4031,-1.90429,0.0222746,0.281192,0.841543,-0.460695,-52.1215,-31.8898,-1.39275,-0.210612,0.0860489,0.602195,0.765245
354,417,183,-48.4872,-45.3885,3.0088,0.0509503,0.150895,0.978526,0.13085,-48.0901,-45.1323,2.85274,0.0372952,0.154309,0.987319,-0.000165188
22,398,92,-41.8742,-36.5667,0.51913,0.0211187,0.174159,0.973622,0.145886,-42.2032,-35.4708,0.115637,-0.0739336,-0.121369,-0.770015,0.621997
138,335,148,-42.7039,-41.7224,1.88658,-0.0615909,0.0679788,-0.104035,0.990334,-41.4962,-41.0027,1.92651,-0.147396,-0.0891945,-0.762149,0.624058
160,324,110,-38.7997,-34.4624,-0.653171,0.0969891,0.199255,0.942248,0.251116,-39.9265,-33.3682,-0.887298,-0.184946,-0.097621,-0.648529,0.731898
386,454,8,-46.5159,-29.7474,-1.90087,-0.171723,-0.0359554,-0.0748863,0.981637,-46.7188,-30.2994,-1.60573,-0.175377,-0.110833,-0.148618,0.966888
382,450,223,-48.9939,-30.4463,-1.7399,-0.227626,0.0141508,0.288795,0.92983,-48.703,-29.8713,-1.74436,-0.161261,-0.0957893,-0.029646,0.981805
176,442,55,-51.6276,-32.3752,-1.24594,0.0580145,0.223599,0.852777,-0.468412,-52.5809,-33.5934,-0.564236,-0.148727,0.0323544,0.611436,0.776518
290,417,10,-47.5776,-45.2873,3.04303,0.0113681,0.135492,0.980078,0.144774,-48.0901,-45.1323,2.85274,0.0372952,0.154309,0.987319,-0.000165188
354,418,79,-48.4872,-45.3885,3.0088,0.0509503,0.150895,0.978526,0.13085,-48.9352,-45.1345,2.94327,0.0227428,0.128138,0.987356,0.0905058
233,448,44,-48.7661,-29.6214,-1.76257,0.00355423,0.235333,0.963636,0.126533,-49.9351,-29.8857,-2.03018,-0.167603,-0.098001,0.0789855,0.977787
97,396,112,-41.4603,-34.9191,-0.186796,0.018501,0.162813,0.976805,0.137849,-41.8615,-33.7089,-0.419405,-0.118286,-0.220171,-0.713262,0.654821
386,455,9,-46.5159,-29.7474,-1.90087,-0.171723,-0.0359554,-0.0748863,0.981637,-46.2565,-30.4611,-1.56863,-0.170812,-0.0784026,-0.143422,0.971651
228,455,81,-45.277,-30.4219,-1.4672,0.0395198,0.242961,0.960386,0.13064,-46.2565,-30.4611,-1.56863,-0.170812,-0.0784026,-0.143422,0.971651
228,454,143,-45.277,-30.4219,-1.4672,0.0395198,0.242961,0.960386,0.13064,-46.7188,-30.2994,-1.60573,-0.175377,-0.110833,-0.148618,0.966888
177,442,90,-51.7788,-32.8024,-1.06625,0.00705399,0.234743,0.840536,-0.488206,-52.5809,-33.5934,-0.564236,-0.148727,0.0323544,0.611436,0.776518
96,396,30,-41.1728,-34.9777,-0.117447,0.0233956,0.172756,0.974042,0.144395,-41.8615,-33.7089,-0.419405,-0.118286,-0.220171,-0.713262,0.654821
224,390,119,-41.9789,-31.0805,-1.40457,0.0591493,0.237759,0.96394,0.103878,-43.3336,-30.6801,-1.63376,-0.126068,-0.0359979,-0.195294,0.971942
72,338,21,-42.5225,-43.2817,2.52462,-0.0646566,0.0995062,-0.0903993,0.98881,-41.8497,-43.066,2.32593,-0.0871237,-0.0422919,-0.796078,0.597395
242,442,5,-51.9781,-32.7144,-1.0953,-0.0951481,-0.237031,-0.758483,0.599555,-52.5809,-33.5934,-0.564236,-0.148727,0.0323544,0.611436,0.776518
180,440,44,-52.9401,-35.013,-0.106119,-0.0587177,-0.212736,-0.747349,0.62671,-53.5602,-35.839,0.0890166,-0.130481,0.0452711,0.573645,0.807377
357,420,105,-50.4973,-44.7688,2.8846,0.00836101,0.123381,0.981115,0.148733,-50.3147,-44.972,2.78435,-0.000330769,0.134163,0.986506,0.0938425
358,420,9,-50.7599,-44.73,2.7887,0.00500703,0.123902,0.980282,0.153851,-50.3147,-44.972,2.78435,-0.000330769,0.134163,0.986506,0.0938425
292,418,19,-48.7062,-44.988,2.69661,-0.0685305,0.115602,0.899275,0.416227,-48.9352,-45.1345,2.94327,0.0227428,0.128138,0.987356,0.0905058
164,395,173,-41.1159,-33.4043,-0.726287,-0.0121679,0.219691,0.967616,0.123717,-42.0059,-32.7926,-0.901159,-0.147946,-0.163134,-0.675251,0.703942
53,365,115,-53.0927,-41.0756,1.5073,-0.0863679,-0.114451,-0.195724,0.970121,-52.4967,-41.8602,1.91834,-0.0427703,0.0600027,0.683227,0.726479
43,437,17,-53.5568,-37.0597,0.499123,-0.0757955,-0.223977,-0.739955,0.629727,-54.2689,-37.9195,0.751522,-0.120538,0.0412338,0.584539,0.801302
356,419,175,-49.7119,-44.9861,3.01838,0.0270269,0.13955,0.977055,0.158617,-49.8841,-45.0132,2.83541,-0.00316791,0.128428,0.987673,0.0894377
317,390,169,-43.531,-30.7895,-1.49547,-0.185081,-0.0079705,-0.0817368,0.979286,-43.3336,-30.6801,-1.63376,-0.126068,-0.0359979,-0.195294,0.971942
172,378,236,-48.8653,-31.7174,-0.957384,-0.0231473,0.228455,0.965911,0.119536,-49.5213,-32.1886,-0.879516,-0.135616,0.117298,0.620452,0.763471
124,367,165,-52.5331,-39.4653,1.21322,-0.0830725,-0.0896569,-0.252494,0.959848,-52.2839,-40.8454,1.70428,-0.0821488,0.0576161,0.633566,0.767155
381,448,12,-49.2462,-30.7109,-1.56614,-0.170255,0.051202,0.434283,0.883057,-49.9351,-29.8857,-2.03018,-0.167603,-0.098001,0.0789855,0.977787
113,441,50,-52.3732,-34.4884,-0.291985,-0.0808043,-0.285264,-0.806534,0.511466,-53.2791,-35.2525,-0.0730488,-0.144862,0.0573509,0.573166,0.804492
228,386,193,-45.277,-30.4219,-1.4672,0.0395198,0.242961,0.960386,0.13064,-46.5159,-29.7474,-1.90087,-0.171723,-0.0359554,-0.0748863,0.981637
22,399,67,-41.8742,-36.5667,0.51913,0.0211187,0.174159,0.973622,0.145886,-42.4045,-35.9316,0.246199,-0.0826666,-0.129176,-0.781778,0.604403
72,337,48,-42.5225,-43.2817,2.52462,-0.0646566,0.0995062,-0.0903993,0.98881,-41.7791,-42.5236,2.22809,-0.0999752,-0.0563945,-0.780609,0.614389
