%time,field.header.seq,field.header.stamp,field.header.frame_id,field.orientation.x,field.orientation.y,field.orientation.z,field.orientation.w,field.orientation_covariance0,field.orientation_covariance1,field.orientation_covariance2,field.orientation_covariance3,field.orientation_covariance4,field.orientation_covariance5,field.orientation_covariance6,field.orientation_covariance7,field.orientation_covariance8,field.angular_velocity.x,field.angular_velocity.y,field.angular_velocity.z,field.angular_velocity_covariance0,field.angular_velocity_covariance1,field.angular_velocity_covariance2,field.angular_velocity_covariance3,field.angular_velocity_covariance4,field.angular_velocity_covariance5,field.angular_velocity_covariance6,field.angular_velocity_covariance7,field.angular_velocity_covariance8,field.linear_acceleration.x,field.linear_acceleration.y,field.linear_acceleration.z,field.linear_acceleration_covariance0,field.linear_acceleration_covariance1,field.linear_acceleration_covariance2,field.linear_acceleration_covariance3,field.linear_acceleration_covariance4,field.linear_acceleration_covariance5,field.linear_acceleration_covariance6,field.linear_acceleration_covariance7,field.linear_acceleration_covariance8
1474477150801133452,1552,1474477150802903890,sparus2,-0.026827265187,0.132487861115,0.536553037023,0.832969448996,0.1,0.0,0.0,0.0,0.1,0.0,0.0,0.0,0.1,0.0554361416826,0.0180415812639,0.0511573713715,0.1,0.0,0.0,0.0,0.1,0.0,0.0,0.0,0.1,0.00833164092488,-0.708833491457,-9.91201010607,0.1,0.0,0.0,0.0,0.1,0.0,0.0,0.0,0.1
1474477150901720023,1553,1474477150906513929,sparus2,-0.0234746681382,0.134680685278,0.538370099859,0.831545361689,0.1,0.0,0.0,0.0,0.1,0.0,0.0,0.0,0.1,0.0731318787489,0.0158186299331,0.053165509731,0.1,0.0,0.0,0.0,0.1,0.0,0.0,0.0,0.1,-0.0103757018637,-0.729489729729,-9.94376349136,0.1,0.0,0.0,0.0,0.1,0.0,0.0,0.0,0.1
1474477151002331473,1554,1474477151004137992,sparus2,-0.020113841037,0.137163097205,0.539864766534,0.830257641952,0.1,0.0,0.0,0.0,0.1,0.0,0.0,0.0,0.1,0.0813785957176,0.0149402226982,0.0500180050921,0.1,0.0,0.0,0.0,0.1,0.0,0.0,0.0,0.1,-0.0672197645487,-0.380213324903,-10.1084104901,0.1,0.0,0.0,0.0,0.1,0.0,0.0,0.0,0.1
1474477151092886409,1555,1474477151101897001,sparus2,-0.0165219135531,0.139169900076,0.541136484723,0.829174330395,0.1,0.0,0.0,0.0,0.1,0.0,0.0,0.0,0.1,0.0823031078911,0.0104704751402,0.0447901890697,0.1,0.0,0.0,0.0,0.1,0.0,0.0,0.0,0.1,-0.0460327502503,-0.649285711015,-9.92841040685,0.1,0.0,0.0,0.0,0.1,0.0,0.0,0.0,0.1
1474477151193544958,1556,1474477151201395988,sparus2,-0.013132547251,0.141611708778,0.542077169617,0.828206497391,0.1,0.0,0.0,0.0,0.1,0.0,0.0,0.0,0.1,0.0831704110567,0.0129093335719,0.0376863198435,0.1,0.0,0.0,0.0,0.1,0.0,0.0,0.0,0.1,0.0706085219135,-0.548856499697,-10.1380557946,0.1,0.0,0.0,0.0,0.1,0.0,0.0,0.0,0.1
1474477151294174312,1557,1474477151302376031,sparus2,-0.00988325311896,0.144234296861,0.542970858202,0.827213053609,0.1,0.0,0.0,0.0,0.1,0.0,0.0,0.0,0.1,0.079052706676,0.0169013070025,0.0347349137299,0.1,0.0,0.0,0.0,0.1,0.0,0.0,0.0,0.1,0.0141780802159,-0.683429202052,-10.1393835418,0.1,0.0,0.0,0.0,0.1,0.0,0.0,0.0,0.1
1474477151394749914,1558,1474477151402549028,sparus2,-0.00721737229899,0.146440263046,0.543501841996,0.826504026997,0.1,0.0,0.0,0.0,0.1,0.0,0.0,0.0,0.1,0.0680346256457,0.0157264838855,0.0250095617249,0.1,0.0,0.0,0.0,0.1,0.0,0.0,0.0,0.1,0.224346063946,-1.33476786016,-9.98099281889,0.1,0.0,0.0,0.0,0.1,0.0,0.0,0.0,0.1
1474477151495256378,1559,1474477151500010967,sparus2,-0.00471235340983,0.148504723319,0.544038701127,0.82580023768,0.1,0.0,0.0,0.0,0.1,0.0,0.0,0.0,0.1,0.0648218936679,0.0156091522899,0.0242735592719,0.1,0.0,0.0,0.0,0.1,0.0,0.0,0.0,0.1,-0.010935359407,-0.818494805265,-10.0774303666,0.1,0.0,0.0,0.0,0.1,0.0,0.0,0.0,0.1
1474477151595865227,1560,1474477151603276014,sparus2,-0.00293426633419,0.149847170397,0.544821326404,0.825049657839,0.1,0.0,0.0,0.0,0.1,0.0,0.0,0.0,0.1,0.0416855240142,0.010688875522,0.0261901775353,0.1,0.0,0.0,0.0,0.1,0.0,0.0,0.0,0.1,0.23494941944,-1.05813320904,-10.2389151317,0.1,0.0,0.0,0.0,0.1,0.0,0.0,0.0,0.1
1474477151696491086,1561,1474477151700623989,sparus2,-0.0013428494021,0.150815764096,0.545496620113,0.824430857926,0.1,0.0,0.0,0.0,0.1,0.0,0.0,0.0,0.1,0.0369474486471,0.00624391336217,0.0241928066921,0.1,0.0,0.0,0.0,0.1,0.0,0.0,0.0,0.1,0.395692873456,-0.89041206484,-10.1965524669,0.1,0.0,0.0,0.0,0.1,0.0,0.0,0.0,0.1
1474477151797114847,1562,1474477151797698974,sparus2,-0.000279226345713,0.151209848425,0.546327118174,0.823809555492,0.1,0.0,0.0,0.0,0.1,0.0,0.0,0.0,0.1,0.0212003328392,0.00245027102183,0.0253368701654,0.1,0.0,0.0,0.0,0.1,0.0,0.0,0.0,0.1,0.392910870793,-1.01211816721,-10.2126584084,0.1,0.0,0.0,0.0,0.1,0.0,0.0,0.0,0.1
1474477151887663732,1563,1474477151894644021,sparus2,0.000711531098934,0.150128384365,0.547419713167,0.823281616197,0.1,0.0,0.0,0.0,0.1,0.0,0.0,0.0,0.1,0.00332565261522,-0.0220835198145,0.0290614280829,0.1,0.0,0.0,0.0,0.1,0.0,0.0,0.0,0.1,0.342904717299,-0.65235006906,-9.50621158188,0.1,0.0,0.0,0.0,0.1,0.0,0.0,0.0,0.1
1474477151998499031,1564,1474477151999646902,sparus2,-0.000143237925288,0.148459414555,0.548620288415,0.822785245889,0.1,0.0,0.0,0.0,0.1,0.0,0.0,0.0,0.1,-0.0326715732717,-0.0041985034212,0.0209162918142,0.1,0.0,0.0,0.0,0.1,0.0,0.0,0.0,0.1,0.0255319194402,-1.1723818737,-9.5992738815,0.1,0.0,0.0,0.0,0.1,0.0,0.0,0.0,0.1
1474477152089043263,1565,1474477152095738887,sparus2,-0.00269930134204,0.145604941406,0.549875459145,0.822452973878,0.1,0.0,0.0,0.0,0.1,0.0,0.0,0.0,0.1,-0.0783515845306,-0.0131090595636,0.0187989154032,0.1,0.0,0.0,0.0,0.1,0.0,0.0,0.0,0.1,0.463956040547,-0.874001341236,-10.1718493841,0.1,0.0,0.0,0.0,0.1,0.0,0.0,0.0,0.1
1474477152189564989,1566,1474477152193671941,sparus2,-0.00607010313028,0.141566976261,0.551353836421,0.822150163987,0.1,0.0,0.0,0.0,0.1,0.0,0.0,0.0,0.1,-0.103771404791,-0.0181669459271,0.0210032936245,0.1,0.0,0.0,0.0,0.1,0.0,0.0,0.0,0.1,0.362422090051,-0.712477834239,-9.80423789823,0.1,0.0,0.0,0.0,0.1,0.0,0.0,0.0,0.1
1474477152290278256,1567,1474477152295806884,sparus2,-0.0103126346795,0.137729979307,0.553220939585,0.821505139589,0.1,0.0,0.0,0.0,0.1,0.0,0.0,0.0,0.1,-0.112882281568,-0.0086631513174,0.0249767604932,0.1,0.0,0.0,0.0,0.1,0.0,0.0,0.0,0.1,0.0815750827476,-0.772015381267,-10.0051622262,0.1,0.0,0.0,0.0,0.1,0.0,0.0,0.0,0.1
1474477152390914654,1568,1474477152393892049,sparus2,-0.0135480765956,0.134820921035,0.554684749944,0.820953468262,0.1,0.0,0.0,0.0,0.1,0.0,0.0,0.0,0.1,-0.0899575286141,-0.000179320256426,0.0231501544837,0.1,0.0,0.0,0.0,0.1,0.0,0.0,0.0,0.1,0.325588557457,-0.866486866137,-9.73468687179,0.1,0.0,0.0,0.0,0.1,0.0,0.0,0.0,0.1
1474477152481452168,1569,1474477152490360021,sparus2,-0.0164272581433,0.132034412088,0.556409642887,0.82018617918,0.1,0.0,0.0,0.0,0.1,0.0,0.0,0.0,0.1,-0.0835164502131,-0.000539759812205,0.0306850769605,0.1,0.0,0.0,0.0,0.1,0.0,0.0,0.0,0.1,0.0737476477374,-0.588113190803,-9.76934231958,0.1,0.0,0.0,0.0,0.1,0.0,0.0,0.0,0.1
1474477152592097093,1570,1474477152594306945,sparus2,-0.0185069511849,0.130407298029,0.557843879087,0.819427627032,0.1,0.0,0.0,0.0,0.1,0.0,0.0,0.0,0.1,-0.0529110845844,0.00923049066831,0.0289244787676,0.1,0.0,0.0,0.0,0.1,0.0,0.0,0.0,0.1,0.195939418281,-0.324788722819,-9.75870569866,0.1,0.0,0.0,0.0,0.1,0.0,0.0,0.0,0.1
1474477152682624645,1571,1474477152692043066,sparus2,-0.020591959529,0.129255874537,0.559443262466,0.818469380113,0.1,0.0,0.0,0.0,0.1,0.0,0.0,0.0,0.1,-0.0480264268501,0.0188064565526,0.0314013370509,0.1,0.0,0.0,0.0,0.1,0.0,0.0,0.0,0.1,-0.135366486585,-0.420505135435,-9.80363498705,0.1,0.0,0.0,0.0,0.1,0.0,0.0,0.0,0.1
1474477152793335965,1572,1474477152794464111,sparus2,-0.0232579629222,0.127401887118,0.561161498862,0.817511833868,0.1,0.0,0.0,0.0,0.1,0.0,0.0,0.0,0.1,-0.0671088644692,0.0125759711499,0.0333615249877,0.1,0.0,0.0,0.0,0.1,0.0,0.0,0.0,0.1,0.154251750324,-0.455793600669,-9.728396408,0.1,0.0,0.0,0.0,0.1,0.0,0.0,0.0,0.1
1474477152884039758,1573,1474477152886867046,sparus2,-0.0251999116326,0.125456924159,0.56299452627,0.816494144514,0.1,0.0,0.0,0.0,0.1,0.0,0.0,0.0,0.1,-0.057155008573,0.00521759454336,0.0369096264883,0.1,0.0,0.0,0.0,0.1,0.0,0.0,0.0,0.1,-0.282434523214,-0.181444800462,-9.75038854387,0.1,0.0,0.0,0.0,0.1,0.0,0.0,0.0,0.1
1474477152984585390,1574,1474477152988831043,sparus2,-0.0275137721917,0.124032102552,0.564477567968,0.815612717616,0.1,0.0,0.0,0.0,0.1,0.0,0.0,0.0,0.1,-0.0548818139811,0.00963445240745,0.0288698233996,0.1,0.0,0.0,0.0,0.1,0.0,0.0,0.0,0.1,0.176882577596,0.0419664734018,-9.54605581933,0.1,0.0,0.0,0.0,0.1,0.0,0.0,0.0,0.1
1474477153085189168,1575,1474477153085556030,sparus2,-0.0287617189762,0.122579175129,0.566049586579,0.814699315625,0.1,0.0,0.0,0.0,0.1,0.0,0.0,0.0,0.1,-0.0420694744212,0.00498047358675,0.0305056087902,0.1,0.0,0.0,0.0,0.1,0.0,0.0,0.0,0.1,-0.291076108883,-0.917739360282,-9.76060067497,0.1,0.0,0.0,0.0,0.1,0.0,0.0,0.0,0.1
1474477153175729132,1576,1474477153184369087,sparus2,-0.0294296186887,0.121659650631,0.567325658929,0.813925318241,0.1,0.0,0.0,0.0,0.1,0.0,0.0,0.0,0.1,-0.0196546372075,0.00731199160216,0.0290738603989,0.1,0.0,0.0,0.0,0.1,0.0,0.0,0.0,0.1,-0.294188947276,0.29988566692,-9.68635489936,0.1,0.0,0.0,0.0,0.1,0.0,0.0,0.0,0.1
1474477153276338909,1577,1474477153279980897,sparus2,-0.0298258505881,0.121376185137,0.568180071429,0.81335702293,0.1,0.0,0.0,0.0,0.1,0.0,0.0,0.0,0.1,-0.0118123871699,0.0069013605272,0.0200416412329,0.1,0.0,0.0,0.0,0.1,0.0,0.0,0.0,0.1,-0.00972975449516,-0.559534744522,-9.53522658878,0.1,0.0,0.0,0.0,0.1,0.0,0.0,0.0,0.1
1474477153376939329,1578,1474477153384506940,sparus2,-0.0295189282626,0.12147329825,0.568999867733,0.812780426196,0.1,0.0,0.0,0.0,0.1,0.0,0.0,0.0,0.1,0.00629436869607,0.0116705638374,0.0190988225478,0.1,0.0,0.0,0.0,0.1,0.0,0.0,0.0,0.1,-0.256590389483,-0.360753682602,-9.68773723949,0.1,0.0,0.0,0.0,0.1,0.0,0.0,0.0,0.1
1474477153477696997,1579,1474477153482228994,sparus2,-0.0287844690698,0.122473671357,0.569511388877,0.81229824086,0.1,0.0,0.0,0.0,0.1,0.0,0.0,0.0,0.1,0.0234403139265,0.0164244171441,0.0143405909056,0.1,0.0,0.0,0.0,0.1,0.0,0.0,0.0,0.1,-0.670053390199,-0.565193009088,-10.008960155,0.1,0.0,0.0,0.0,0.1,0.0,0.0,0.0,0.1
1474477153578215480,1580,1474477153578182935,sparus2,-0.0271098201577,0.124251170389,0.569637882994,0.811997159211,0.1,0.0,0.0,0.0,0.1,0.0,0.0,0.0,0.1,0.0500067093935,0.0247163558142,0.00815913079477,0.1,0.0,0.0,0.0,0.1,0.0,0.0,0.0,0.1,-0.382197637637,-0.705644283362,-9.76929366876,0.1,0.0,0.0,0.0,0.1,0.0,0.0,0.0,0.1
1474477153678855922,1581,1474477153680563926,sparus2,-0.025551541173,0.126943848033,0.569274446115,0.8118860654,0.1,0.0,0.0,0.0,0.1,0.0,0.0,0.0,0.1,0.0576389667772,0.0326823700571,-0.00033421187625,0.1,0.0,0.0,0.0,0.1,0.0,0.0,0.0,0.1,-0.406391919443,-0.284067184746,-10.0273460671,0.1,0.0,0.0,0.0,0.1,0.0,0.0,0.0,0.1
1474477153769464450,1582,1474477153778053998,sparus2,-0.024075329039,0.129889455871,0.568497696979,0.812009529694,0.1,0.0,0.0,0.0,0.1,0.0,0.0,0.0,0.1,0.0628518875321,0.0386422664825,-0.00973402879331,0.1,0.0,0.0,0.0,0.1,0.0,0.0,0.0,0.1,-0.274222951151,-0.365275888259,-10.009741168,0.1,0.0,0.0,0.0,0.1,0.0,0.0,0.0,0.1
1474477153880286960,1583,1474477153878712892,sparus2,-0.0236980222121,0.131844682411,0.56765029378,0.812298299539,0.1,0.0,0.0,0.0,0.1,0.0,0.0,0.0,0.1,0.0353356277563,0.0394550694019,-0.0133509617574,0.1,0.0,0.0,0.0,0.1,0.0,0.0,0.0,0.1,0.128077707821,-0.147387075178,-9.69650622553,0.1,0.0,0.0,0.0,0.1,0.0,0.0,0.0,0.1
1474477153980930874,1584,1474477153985829114,sparus2,-0.0230635659942,0.134161713276,0.566747461284,0.812567549034,0.1,0.0,0.0,0.0,0.1,0.0,0.0,0.0,0.1,0.0422476728662,0.0425262152853,-0.0155409244614,0.1,0.0,0.0,0.0,0.1,0.0,0.0,0.0,0.1,-0.152318098499,-0.376257038703,-9.90578121677,0.1,0.0,0.0,0.0,0.1,0.0,0.0,0.0,0.1
1474477154071692298,1585,1474477154078624963,sparus2,-0.0227488801546,0.136032720828,0.565582732422,0.81307672461,0.1,0.0,0.0,0.0,0.1,0.0,0.0,0.0,0.1,0.0354105675867,0.0394012913546,-0.0223528384456,0.1,0.0,0.0,0.0,0.1,0.0,0.0,0.0,0.1,0.0481079547049,-0.102224279398,-9.9016815826,0.1,0.0,0.0,0.0,0.1,0.0,0.0,0.0,0.1
1474477154172358169,1586,1474477154175543069,sparus2,-0.0230965541084,0.137260633635,0.564871634569,0.813354845133,0.1,0.0,0.0,0.0,0.1,0.0,0.0,0.0,0.1,0.0149240936317,0.0378988590632,-0.0160345366827,0.1,0.0,0.0,0.0,0.1,0.0,0.0,0.0,0.1,-0.174730106336,-0.300729968455,-9.65483402878,0.1,0.0,0.0,0.0,0.1,0.0,0.0,0.0,0.1
1474477154273165213,1587,1474477154273026943,sparus2,-0.0248581460434,0.136936054809,0.564422292611,0.813669506048,0.1,0.0,0.0,0.0,0.1,0.0,0.0,0.0,0.1,-0.0287842733707,0.0277902808842,-0.0167810136941,0.1,0.0,0.0,0.0,0.1,0.0,0.0,0.0,0.1,-0.0456836155841,-0.528029925531,-9.76326392068,0.1,0.0,0.0,0.0,0.1,0.0,0.0,0.0,0.1
1474477154373822374,1588,1474477154375101089,sparus2,-0.0278659709851,0.135490571709,0.564019283386,0.81409338568,0.1,0.0,0.0,0.0,0.1,0.0,0.0,0.0,0.1,-0.0594076927873,0.0215731032298,-0.0194727670958,0.1,0.0,0.0,0.0,0.1,0.0,0.0,0.0,0.1,0.0712981314569,-0.403215563018,-9.86298045897,0.1,0.0,0.0,0.0,0.1,0.0,0.0,0.0,0.1
1474477154474486032,1589,1474477154474554061,sparus2,-0.0309097053618,0.133880926312,0.563887352147,0.814341170378,0.1,0.0,0.0,0.0,0.1,0.0,0.0,0.0,0.1,-0.0645346605184,0.0206694186615,-0.0139570360898,0.1,0.0,0.0,0.0,0.1,0.0,0.0,0.0,0.1,0.0149761463191,-0.279450773341,-9.72229066767,0.1,0.0,0.0,0.0,0.1,0.0,0.0,0.0,0.1
1474477154565038280,1590,1474477154569331884,sparus2,-0.0334922425195,0.132803881509,0.563999741043,0.814337577943,0.1,0.0,0.0,0.0,0.1,0.0,0.0,0.0,0.1,-0.0527421410778,0.0253065680696,-0.00492116140873,0.1,0.0,0.0,0.0,0.1,0.0,0.0,0.0,0.1,0.0295219041276,-0.163115290817,-9.84724414433,0.1,0.0,0.0,0.0,0.1,0.0,0.0,0.0,0.1
1474477154665637348,1591,1474477154674477100,sparus2,-0.0354740277615,0.131659847723,0.564402027064,0.814160690342,0.1,0.0,0.0,0.0,0.1,0.0,0.0,0.0,0.1,-0.0416620022008,0.0161279570379,0.00296452609132,0.1,0.0,0.0,0.0,0.1,0.0,0.0,0.0,0.1,0.0598193878867,-0.180151485002,-9.96449707061,0.1,0.0,0.0,0.0,0.1,0.0,0.0,0.0,0.1
1474477154766836416,1592,1474477154769490957,sparus2,-0.0372702049598,0.130414072999,0.565032271643,0.813843740154,0.1,0.0,0.0,0.0,0.1,0.0,0.0,0.0,0.1,-0.0427491133257,0.0130793723797,0.010307722273,0.1,0.0,0.0,0.0,0.1,0.0,0.0,0.0,0.1,0.165512653816,0.0147008234715,-9.91510464319,0.1,0.0,0.0,0.0,0.1,0.0,0.0,0.0,0.1
1474477154867481432,1593,1474477154869555950,sparus2,-0.0387013998832,0.129583584562,0.56570042799,0.813445340531,0.1,0.0,0.0,0.0,0.1,0.0,0.0,0.0,0.1,-0.0328524474382,0.0148255933847,0.0140357541187,0.1,0.0,0.0,0.0,0.1,0.0,0.0,0.0,0.1,0.375395062243,-0.152765026566,-9.92787741086,0.1,0.0,0.0,0.0,0.1,0.0,0.0,0.0,0.1
1474477154968223217,1594,1474477154966625928,sparus2,-0.0393680573871,0.128902605084,0.56664196996,0.812866011308,0.1,0.0,0.0,0.0,0.1,0.0,0.0,0.0,0.1,-0.0182454048939,0.0107296311756,0.0200004409189,0.1,0.0,0.0,0.0,0.1,0.0,0.0,0.0,0.1,-0.0528788106689,-0.0617906516654,-9.75412625728,0.1,0.0,0.0,0.0,0.1,0.0,0.0,0.0,0.1
1474477155069026489,1595,1474477155067125082,sparus2,-0.0394603968754,0.128449170025,0.567856775713,0.812085198779,0.1,0.0,0.0,0.0,0.1,0.0,0.0,0.0,0.1,-0.00695616075446,0.00658950908414,0.0288911151246,0.1,0.0,0.0,0.0,0.1,0.0,0.0,0.0,0.1,0.206581588794,-0.0561144340103,-9.90680181616,0.1,0.0,0.0,0.0,0.1,0.0,0.0,0.0,0.1
1474477155159624211,1596,1474477155165812015,sparus2,-0.0395275732742,0.128107107491,0.569028615957,0.811315335849,0.1,0.0,0.0,0.0,0.1,0.0,0.0,0.0,0.1,-0.00616456790742,0.00820212444857,0.0289485185141,0.1,0.0,0.0,0.0,0.1,0.0,0.0,0.0,0.1,0.228506721967,-0.220213618192,-9.82847572661,0.1,0.0,0.0,0.0,0.1,0.0,0.0,0.0,0.1
1474477155260294994,1597,1474477155261812925,sparus2,-0.0387350194078,0.128625152703,0.57019664591,0.810451080175,0.1,0.0,0.0,0.0,0.1,0.0,0.0,0.0,0.1,0.018626377968,0.0127611783831,0.0341857703417,0.1,0.0,0.0,0.0,0.1,0.0,0.0,0.0,0.1,0.279390477917,-0.135311851992,-9.74892458895,0.1,0.0,0.0,0.0,0.1,0.0,0.0,0.0,0.1
1474477155360959868,1598,1474477155363954067,sparus2,-0.0373846107734,0.129113573431,0.571193745073,0.809734389552,0.1,0.0,0.0,0.0,0.1,0.0,0.0,0.0,0.1,0.027569717227,0.00616719925414,0.0281516274181,0.1,0.0,0.0,0.0,0.1,0.0,0.0,0.0,0.1,0.045254040954,-0.0381731763838,-9.68968181618,0.1,0.0,0.0,0.0,0.1,0.0,0.0,0.0,0.1
1474477155461580808,1599,1474477155461855888,sparus2,-0.0354790640961,0.12979750349,0.572006053881,0.809137144384,0.1,0.0,0.0,0.0,0.1,0.0,0.0,0.0,0.1,0.0416963919534,0.00202484769401,0.0294446674077,0.1,0.0,0.0,0.0,0.1,0.0,0.0,0.0,0.1,0.280152669843,0.203661092553,-9.83419837183,0.1,0.0,0.0,0.0,0.1,0.0,0.0,0.0,0.1
1474477155562183193,1600,1474477155560230016,sparus2,-0.0334505363863,0.13004972404,0.572746473866,0.808659141769,0.1,0.0,0.0,0.0,0.1,0.0,0.0,0.0,0.1,0.0385214724766,-0.00654077677767,0.0253485076537,0.1,0.0,0.0,0.0,0.1,0.0,0.0,0.0,0.1,0.175010401667,0.000943225324291,-9.80514156073,0.1,0.0,0.0,0.0,0.1,0.0,0.0,0.0,0.1
1474477155652771382,1601,1474477155657067060,sparus2,-0.0311710128092,0.130563135962,0.573262504482,0.808301760757,0.1,0.0,0.0,0.0,0.1,0.0,0.0,0.0,0.1,0.0466367166942,-0.00593492766529,0.022678273802,0.1,0.0,0.0,0.0,0.1,0.0,0.0,0.0,0.1,0.30613160273,0.0646343853358,-9.87342636938,0.1,0.0,0.0,0.0,0.1,0.0,0.0,0.0,0.1
1474477155753440019,1602,1474477155759347915,sparus2,-0.0283644124631,0.130968064829,0.574084172718,0.80775626815,0.1,0.0,0.0,0.0,0.1,0.0,0.0,0.0,0.1,0.0497996121801,-0.0130912895695,0.0292316300311,0.1,0.0,0.0,0.0,0.1,0.0,0.0,0.0,0.1,0.293914068991,-0.196363951828,-9.74102557688,0.1,0.0,0.0,0.0,0.1,0.0,0.0,0.0,0.1
1474477155854097710,1603,1474477155857151031,sparus2,-0.0246968491461,0.132020780736,0.57428552141,0.807562207508,0.1,0.0,0.0,0.0,0.1,0.0,0.0,0.0,0.1,0.0765371602325,-0.0133576394242,0.0188441327106,0.1,0.0,0.0,0.0,0.1,0.0,0.0,0.0,0.1,0.200303537644,-0.170500098062,-9.82093949486,0.1,0.0,0.0,0.0,0.1,0.0,0.0,0.0,0.1
1474477155954743504,1604,1474477155957681894,sparus2,-0.0208957111047,0.133304480183,0.574317086056,0.807436170533,0.1,0.0,0.0,0.0,0.1,0.0,0.0,0.0,0.1,0.0806639950968,-0.0109439416876,0.0147869377861,0.1,0.0,0.0,0.0,0.1,0.0,0.0,0.0,0.1,0.160161077684,-0.204349930959,-9.82954343772,0.1,0.0,0.0,0.0,0.1,0.0,0.0,0.0,0.1
1474477156055400379,1605,1474477156058070898,sparus2,-0.017345490977,0.134420199429,0.574807664447,0.806986054911,0.1,0.0,0.0,0.0,0.1,0.0,0.0,0.0,0.1,0.0718050297651,-0.0101966884459,0.0247837262586,0.1,0.0,0.0,0.0,0.1,0.0,0.0,0.0,0.1,0.177134185038,-0.450299658579,-9.72800628625,0.1,0.0,0.0,0.0,0.1,0.0,0.0,0.0,0.1
1474477156145973300,1606,1474477156155226945,sparus2,-0.0142752148863,0.135049373223,0.575210423722,0.806654110182,0.1,0.0,0.0,0.0,0.1,0.0,0.0,0.0,0.1,0.0612690207023,-0.0126238317322,0.0196954911712,0.1,0.0,0.0,0.0,0.1,0.0,0.0,0.0,0.1,0.00989416850009,-0.417937177924,-9.84048806607,0.1,0.0,0.0,0.0,0.1,0.0,0.0,0.0,0.1
1474477156246595920,1607,1474477156252250909,sparus2,-0.0117458822682,0.135703727183,0.575327332062,0.806501700966,0.1,0.0,0.0,0.0,0.1,0.0,0.0,0.0,0.1,0.0502136296855,-0.0124915840935,0.0104254586881,0.1,0.0,0.0,0.0,0.1,0.0,0.0,0.0,0.1,-0.0361040618341,-0.953151147764,-9.54469279944,0.1,0.0,0.0,0.0,0.1,0.0,0.0,0.0,0.1
1474477156347169518,1608,1474477156349780082,sparus2,-0.00953106165181,0.13620235552,0.575777965144,0.80612518387,0.1,0.0,0.0,0.0,0.1,0.0,0.0,0.0,0.1,0.0426324883574,-0.0110069877131,0.0182169970047,0.1,0.0,0.0,0.0,0.1,0.0,0.0,0.0,0.1,0.0393722912132,-0.830149216197,-9.55093551698,0.1,0.0,0.0,0.0,0.1,0.0,0.0,0.0,0.1
1474477156447853193,1609,1474477156451337099,sparus2,-0.0079704909094,0.135826524791,0.57599044163,0.806053743611,0.1,0.0,0.0,0.0,0.1,0.0,0.0,0.0,0.1,0.0266985788787,-0.00963674492665,0.00689955174976,0.1,0.0,0.0,0.0,0.1,0.0,0.0,0.0,0.1,-0.491376949677,-0.038127092733,-9.92598701752,0.1,0.0,0.0,0.0,0.1,0.0,0.0,0.0,0.1
1474477156548491234,1610,1474477156549719095,sparus2,-0.00699101068016,0.135461770109,0.57671396619,0.805606750102,0.1,0.0,0.0,0.0,0.1,0.0,0.0,0.0,0.1,0.0127380905744,-0.00392154562621,0.0187105285067,0.1,0.0,0.0,0.0,0.1,0.0,0.0,0.0,0.1,-0.154844681088,-0.877004952542,-9.80533222623,0.1,0.0,0.0,0.0,0.1,0.0,0.0,0.0,0.1
1474477156649103952,1611,1474477156648127079,sparus2,-0.00679004257306,0.135054038739,0.577346088622,0.805224065646,0.1,0.0,0.0,0.0,0.1,0.0,0.0,0.0,0.1,-0.00175917866992,-0.00170332437186,0.0148194152735,0.1,0.0,0.0,0.0,0.1,0.0,0.0,0.0,0.1,-0.229073673365,-0.82197303215,-9.53959999733,0.1,0.0,0.0,0.0,0.1,0.0,0.0,0.0,0.1
1474477156749763585,1612,1474477156750663042,sparus2,-0.00736134734212,0.133203342641,0.578020778044,0.805043266057,0.1,0.0,0.0,0.0,0.1,0.0,0.0,0.0,0.1,-0.0244687719968,-0.00954662429898,0.0123747885206,0.1,0.0,0.0,0.0,0.1,0.0,0.0,0.0,0.1,-0.27183410856,0.168155697131,-9.61577039486,0.1,0.0,0.0,0.0,0.1,0.0,0.0,0.0,0.1
1474477156840388853,1613,1474477156847282886,sparus2,-0.00833840439578,0.131447020532,0.579161304633,0.804502538853,0.1,0.0,0.0,0.0,0.1,0.0,0.0,0.0,0.1,-0.0376507198732,-0.0106670348437,0.0241159355514,0.1,0.0,0.0,0.0,0.1,0.0,0.0,0.0,0.1,0.255205419628,-0.318430385329,-9.53801983006,0.1,0.0,0.0,0.0,0.1,0.0,0.0,0.0,0.1
1474477156941101239,1614,1474477156943499088,sparus2,-0.00929211715387,0.129528559727,0.580283344722,0.803994557576,0.1,0.0,0.0,0.0,0.1,0.0,0.0,0.0,0.1,-0.0397292504587,-0.00618002930057,0.0197329751273,0.1,0.0,0.0,0.0,0.1,0.0,0.0,0.0,0.1,-0.348433025598,-0.947646972259,-9.76162730642,0.1,0.0,0.0,0.0,0.1,0.0,0.0,0.0,0.1
1474477157041869745,1615,1474477157043672084,sparus2,-0.01026882713,0.12730657468,0.581732519027,0.803290024549,0.1,0.0,0.0,0.0,0.1,0.0,0.0,0.0,0.1,-0.0394536867196,-0.00885005114286,0.027220688753,0.1,0.0,0.0,0.0,0.1,0.0,0.0,0.0,0.1,-0.655386703409,0.0195749202677,-9.6381730573,0.1,0.0,0.0,0.0,0.1,0.0,0.0,0.0,0.1
1474477157142470483,1616,1474477157148159027,sparus2,-0.0108939437983,0.125858941411,0.582959472602,0.802620148114,0.1,0.0,0.0,0.0,0.1,0.0,0.0,0.0,0.1,-0.0280829251328,-0.00831482861522,0.0247775100829,0.1,0.0,0.0,0.0,0.1,0.0,0.0,0.0,0.1,-0.20277576104,-0.734912957284,-9.46829006722,0.1,0.0,0.0,0.0,0.1,0.0,0.0,0.0,0.1
1474477157243144647,1617,1474477157244322061,sparus2,-0.0105579136338,0.124999711514,0.584177495888,0.80187296742,0.1,0.0,0.0,0.0,0.1,0.0,0.0,0.0,0.1,-0.00307088471604,-0.00246835331757,0.0278195116404,0.1,0.0,0.0,0.0,0.1,0.0,0.0,0.0,0.1,-0.57744799843,-0.340893041129,-9.60660435045,0.1,0.0,0.0,0.0,0.1,0.0,0.0,0.0,0.1
1474477157333708634,1618,1474477157341389894,sparus2,-0.0104193933675,0.124151884162,0.585179888049,0.801275386196,0.1,0.0,0.0,0.0,0.1,0.0,0.0,0.0,0.1,-0.00307868865283,0.00161503977744,0.0192157357768,0.1,0.0,0.0,0.0,0.1,0.0,0.0,0.0,0.1,-1.02788283546,0.0349085382809,-9.77759599628,0.1,0.0,0.0,0.0,0.1,0.0,0.0,0.0,0.1
1474477157444411696,1619,1474477157446043014,sparus2,-0.00950775497576,0.124450538301,0.586074622746,0.800586161937,0.1,0.0,0.0,0.0,0.1,0.0,0.0,0.0,0.1,0.0166232491875,0.00191748511324,0.0235098373558,0.1,0.0,0.0,0.0,0.1,0.0,0.0,0.0,0.1,-0.373427442556,-0.670892288895,-9.35318625637,0.1,0.0,0.0,0.0,0.1,0.0,0.0,0.0,0.1
1474477157534987158,1620,1474477157542356014,sparus2,-0.00741445708201,0.126873101606,0.586637994221,0.799815044652,0.1,0.0,0.0,0.0,0.1,0.0,0.0,0.0,0.1,0.0653020833599,0.0239079400515,0.0233165184827,0.1,0.0,0.0,0.0,0.1,0.0,0.0,0.0,0.1,-0.630161302658,-0.361554097205,-9.53690963521,0.1,0.0,0.0,0.0,0.1,0.0,0.0,0.0,0.1
1474477157635612036,1621,1474477157642419099,sparus2,-0.0045534614668,0.129937099141,0.586859484813,0.799181807438,0.1,0.0,0.0,0.0,0.1,0.0,0.0,0.0,0.1,0.0867839892437,0.0312031960752,0.016207246981,0.1,0.0,0.0,0.0,0.1,0.0,0.0,0.0,0.1,-0.589790637013,-0.674880925655,-9.85889978053,0.1,0.0,0.0,0.0,0.1,0.0,0.0,0.0,0.1
1474477157736300162,1622,1474477157742368936,sparus2,-0.000854028790767,0.133938339192,0.587001093772,0.798429400661,0.1,0.0,0.0,0.0,0.1,0.0,0.0,0.0,0.1,0.10513046319,0.0350211029925,0.0169476578803,0.1,0.0,0.0,0.0,0.1,0.0,0.0,0.0,0.1,-0.559125100757,-1.20806433875,-9.82862458791,0.1,0.0,0.0,0.0,0.1,0.0,0.0,0.0,0.1
1474477157836939751,1623,1474477157839543104,sparus2,0.00312897708059,0.138583995411,0.586624266105,0.797907673942,0.1,0.0,0.0,0.0,0.1,0.0,0.0,0.0,0.1,0.126745136749,0.0431691234548,0.00876895807852,0.1,0.0,0.0,0.0,0.1,0.0,0.0,0.0,0.1,-0.432582717796,-0.870968194077,-9.69215163769,0.1,0.0,0.0,0.0,0.1,0.0,0.0,0.0,0.1
1474477157937567013,1624,1474477157938395023,sparus2,0.00666271483125,0.143229468,0.58610824127,0.797444704818,0.1,0.0,0.0,0.0,0.1,0.0,0.0,0.0,0.1,0.116568821306,0.047035749628,0.00472573915103,0.1,0.0,0.0,0.0,0.1,0.0,0.0,0.0,0.1,-0.252683297619,-1.2876246016,-9.64339553995,0.1,0.0,0.0,0.0,0.1,0.0,0.0,0.0,0.1
1474477158038203419,1625,1474477158037223100,sparus2,0.00884185227337,0.147401754212,0.585423636233,0.797166049605,0.1,0.0,0.0,0.0,0.1,0.0,0.0,0.0,0.1,0.0905844733489,0.0488840987828,-0.00162732071017,0.1,0.0,0.0,0.0,0.1,0.0,0.0,0.0,0.1,0.0223770171243,-0.761587070936,-9.51962017971,0.1,0.0,0.0,0.0,0.1,0.0,0.0,0.0,0.1
1474477158128775685,1626,1474477158136847019,sparus2,0.0104254375672,0.150378638726,0.584763674228,0.797075291657,0.1,0.0,0.0,0.0,0.1,0.0,0.0,0.0,0.1,0.0638674168919,0.0427158734401,-0.0117160696526,0.1,0.0,0.0,0.0,0.1,0.0,0.0,0.0,0.1,-0.79922509336,-1.49153807887,-9.73924355471,0.1,0.0,0.0,0.0,0.1,0.0,0.0,0.0,0.1
1474477158229434621,1627,1474477158235270023,sparus2,0.0101127712473,0.151901531727,0.583923697197,0.79740627811,0.1,0.0,0.0,0.0,0.1,0.0,0.0,0.0,0.1,0.0196752715048,0.0396999596368,-0.0191140882459,0.1,0.0,0.0,0.0,0.1,0.0,0.0,0.0,0.1,-0.00185742228812,-1.09022803651,-9.62301195236,0.1,0.0,0.0,0.0,0.1,0.0,0.0,0.0,0.1
1474477158330140806,1628,1474477158332422971,sparus2,0.00836020811876,0.151181338248,0.582979962833,0.79825351413,0.1,0.0,0.0,0.0,0.1,0.0,0.0,0.0,0.1,-0.0308349136934,0.0176239826835,-0.0287708451674,0.1,0.0,0.0,0.0,0.1,0.0,0.0,0.0,0.1,0.252831319004,-1.09382207564,-9.83856461873,0.1,0.0,0.0,0.0,0.1,0.0,0.0,0.0,0.1
1474477158430769244,1629,1474477158436759948,sparus2,0.00418721183429,0.148326976718,0.582219687386,0.799375888337,0.1,0.0,0.0,0.0,0.1,0.0,0.0,0.0,0.1,-0.0935278118655,0.00551450857869,-0.0361389423889,0.1,0.0,0.0,0.0,0.1,0.0,0.0,0.0,0.1,0.0504008683244,-1.01345888444,-9.98286140333,0.1,0.0,0.0,0.0,0.1,0.0,0.0,0.0,0.1
1474477158531403094,1630,1474477158533092021,sparus2,-0.00157050257785,0.142919565436,0.582034291378,0.800504600235,0.1,0.0,0.0,0.0,0.1,0.0,0.0,0.0,0.1,-0.157066571915,-0.016401469267,-0.0346767138474,0.1,0.0,0.0,0.0,0.1,0.0,0.0,0.0,0.1,-0.290544337023,-1.17595834787,-9.94183940949,0.1,0.0,0.0,0.0,0.1,0.0,0.0,0.0,0.1
1474477158621960407,1631,1474477158631436109,sparus2,-0.00872768467044,0.135401205384,0.581911184392,0.801853923468,0.1,0.0,0.0,0.0,0.1,0.0,0.0,0.0,0.1,-0.204651352428,-0.0353547026313,-0.0392764204003,0.1,0.0,0.0,0.0,0.1,0.0,0.0,0.0,0.1,-0.0326936318781,-0.662332282504,-10.0537745001,0.1,0.0,0.0,0.0,0.1,0.0,0.0,0.0,0.1
1474477158723004272,1632,1474477158729959011,sparus2,-0.0160353298021,0.126606406951,0.581780721702,0.803271359986,0.1,0.0,0.0,0.0,0.1,0.0,0.0,0.0,0.1,-0.220596508846,-0.048533757402,-0.0404088471488,0.1,0.0,0.0,0.0,0.1,0.0,0.0,0.0,0.1,-0.00779138642642,-0.874105182591,-9.9520046539,0.1,0.0,0.0,0.0,0.1,0.0,0.0,0.0,0.1
1474477158823715343,1633,1474477158832750082,sparus2,-0.0243356775722,0.117104687724,0.581515995285,0.804694609239,0.1,0.0,0.0,0.0,0.1,0.0,0.0,0.0,0.1,-0.236483210507,-0.0519903273143,-0.0439037725727,0.1,0.0,0.0,0.0,0.1,0.0,0.0,0.0,0.1,-0.161754864597,-0.193072220504,-10.0387705927,0.1,0.0,0.0,0.0,0.1,0.0,0.0,0.0,0.1
1474477158924453459,1634,1474477158927217960,sparus2,-0.0314910032985,0.108634229876,0.581124401433,0.805916466434,0.1,0.0,0.0,0.0,0.1,0.0,0.0,0.0,0.1,-0.215945618089,-0.0510672676548,-0.0415812681637,0.1,0.0,0.0,0.0,0.1,0.0,0.0,0.0,0.1,-0.028304768171,0.105045298117,-10.231851496,0.1,0.0,0.0,0.0,0.1,0.0,0.0,0.0,0.1
1474477159025118189,1635,1474477159029341936,sparus2,-0.037254383609,0.101392218674,0.580639614279,0.806963051957,0.1,0.0,0.0,0.0,0.1,0.0,0.0,0.0,0.1,-0.176273556543,-0.0461344064214,-0.0369769817903,0.1,0.0,0.0,0.0,0.1,0.0,0.0,0.0,0.1,-0.253871838617,0.236479305702,-10.2115972244,0.1,0.0,0.0,0.0,0.1,0.0,0.0,0.0,0.1
1474477159125701038,1636,1474477159130878925,sparus2,-0.041668683976,0.0957941291085,0.580198391519,0.807748124159,0.1,0.0,0.0,0.0,0.1,0.0,0.0,0.0,0.1,-0.128901114333,-0.0335650186627,-0.0268952988518,0.1,0.0,0.0,0.0,0.1,0.0,0.0,0.0,0.1,-0.136150066385,0.5228790304,-10.2637350569,0.1,0.0,0.0,0.0,0.1,0.0,0.0,0.0,0.1
1474477159226302818,1637,1474477159230453968,sparus2,-0.0446784311934,0.092093096192,0.579540932146,0.808489336595,0.1,0.0,0.0,0.0,0.1,0.0,0.0,0.0,0.1,-0.0873280945134,-0.0245480904784,-0.0175027158368,0.1,0.0,0.0,0.0,0.1,0.0,0.0,0.0,0.1,1.57997634742,2.14556743409,-9.76788130337,0.1,0.0,0.0,0.0,0.1,0.0,0.0,0.0,0.1
1474477159326909043,1638,1474477159333561897,sparus2,-0.0465286548696,0.0899349306638,0.579036132992,0.808989461743,0.1,0.0,0.0,0.0,0.1,0.0,0.0,0.0,0.1,-0.0532757494647,-0.00951728273692,-0.0167983523566,0.1,0.0,0.0,0.0,0.1,0.0,0.0,0.0,0.1,0.244145452265,0.292187332512,-9.44219861222,0.1,0.0,0.0,0.0,0.1,0.0,0.0,0.0,0.1
1474477159417500672,1639,1474477159425687074,sparus2,-0.0471736511244,0.0899022997296,0.578912790629,0.809044006213,0.1,0.0,0.0,0.0,0.1,0.0,0.0,0.0,0.1,-0.00745728492838,0.00975796582613,0.00479297586671,0.1,0.0,0.0,0.0,0.1,0.0,0.0,0.0,0.1,1.29808364194,1.97177373713,-11.1382816616,0.1,0.0,0.0,0.0,0.1,0.0,0.0,0.0,0.1
1474477159528198642,1640,1474477159528541088,sparus2,-0.0460992560848,0.0897946712682,0.579186252347,0.808922159848,0.1,0.0,0.0,0.0,0.1,0.0,0.0,0.0,0.1,0.0229323075238,0.00128666758495,0.00540554418209,0.1,0.0,0.0,0.0,0.1,0.0,0.0,0.0,0.1,-1.0728482962,1.18607750931,-9.62577018658,0.1,0.0,0.0,0.0,0.1,0.0,0.0,0.0,0.1
1474477159618848278,1641,1474477159624162912,sparus2,-0.0444733972186,0.0918307245298,0.57940926767,0.808624842254,0.1,0.0,0.0,0.0,0.1,0.0,0.0,0.0,0.1,0.0584181190341,0.0291040826848,0.0136943310401,0.1,0.0,0.0,0.0,0.1,0.0,0.0,0.0,0.1,-0.737662205796,1.27454458627,-9.70634187863,0.1,0.0,0.0,0.0,0.1,0.0,0.0,0.0,0.1
1474477159719505549,1642,1474477159723190069,sparus2,-0.0411645780747,0.0951471574804,0.579685570236,0.80821849496,0.1,0.0,0.0,0.0,0.1,0.0,0.0,0.0,0.1,0.0983856693065,0.0309892427296,0.0180405099558,0.1,0.0,0.0,0.0,0.1,0.0,0.0,0.0,0.1,-0.863165481317,0.695677943787,-9.81214275787,0.1,0.0,0.0,0.0,0.1,0.0,0.0,0.0,0.1
1474477159820407510,1643,1474477159822982072,sparus2,-0.0368936876938,0.10094427136,0.579640463942,0.8077537016,0.1,0.0,0.0,0.0,0.1,0.0,0.0,0.0,0.1,0.134505136781,0.0513905441796,0.0157255775,0.1,0.0,0.0,0.0,0.1,0.0,0.0,0.0,0.1,-0.925810722866,0.164091737708,-10.0109315286,0.1,0.0,0.0,0.0,0.1,0.0,0.0,0.0,0.1
1474477159921040172,1644,1474477159920600891,sparus2,-0.0324456045726,0.10709627578,0.579542952757,0.807222172866,0.1,0.0,0.0,0.0,0.1,0.0,0.0,0.0,0.1,0.150810311289,0.0619277706643,0.0216780236687,0.1,0.0,0.0,0.0,0.1,0.0,0.0,0.0,0.1,0.0133054702479,0.05907185432,-9.65852390593,0.1,0.0,0.0,0.0,0.1,0.0,0.0,0.0,0.1
1474477160011604649,1645,1474477160019277095,sparus2,-0.0283325395824,0.113732654874,0.579448720167,0.80653662726,0.1,0.0,0.0,0.0,0.1,0.0,0.0,0.0,0.1,0.146964823053,0.0672473162708,0.0218133817857,0.1,0.0,0.0,0.0,0.1,0.0,0.0,0.0,0.1,0.35326254753,-0.222280025174,-9.54397508,0.1,0.0,0.0,0.0,0.1,0.0,0.0,0.0,0.1
1474477160122496193,1646,1474477160124047994,sparus2,-0.0243945815041,0.119786101094,0.579509056729,0.805745274604,0.1,0.0,0.0,0.0,0.1,0.0,0.0,0.0,0.1,0.139890991328,0.0663373416671,0.0266414097884,0.1,0.0,0.0,0.0,0.1,0.0,0.0,0.0,0.1,0.158896034105,-0.0674578315198,-9.7899184718,0.1,0.0,0.0,0.0,0.1,0.0,0.0,0.0,0.1
1474477160213060875,1647,1474477160219003915,sparus2,-0.0215165137331,0.125643315029,0.579982842867,0.804593499231,0.1,0.0,0.0,0.0,0.1,0.0,0.0,0.0,0.1,0.113021371919,0.0734581251107,0.0325918544321,0.1,0.0,0.0,0.0,0.1,0.0,0.0,0.0,0.1,0.129724982135,-0.340820232206,-9.90891660852,0.1,0.0,0.0,0.0,0.1,0.0,0.0,0.0,0.1
1474477160313769171,1648,1474477160316591978,sparus2,-0.0193852114888,0.130706145011,0.580561099786,0.803423254983,0.1,0.0,0.0,0.0,0.1,0.0,0.0,0.0,0.1,0.0983199023217,0.0739860296557,0.0337631946071,0.1,0.0,0.0,0.0,0.1,0.0,0.0,0.0,0.1,0.0064677615544,-0.144318885267,-9.7063284599,0.1,0.0,0.0,0.0,0.1,0.0,0.0,0.0,0.1
1474477160404333781,1649,1474477160413980960,sparus2,-0.0181035986648,0.134647464984,0.581553715511,0.802083284868,0.1,0.0,0.0,0.0,0.1,0.0,0.0,0.0,0.1,0.0673749273403,0.0647126627528,0.0385400412136,0.1,0.0,0.0,0.0,0.1,0.0,0.0,0.0,0.1,0.0211845559277,-0.431362963631,-9.84034433226,0.1,0.0,0.0,0.0,0.1,0.0,0.0,0.0,0.1
1474477160515028923,1650,1474477160519421100,sparus2,-0.0184714327112,0.137700392813,0.582739352761,0.800694857444,0.1,0.0,0.0,0.0,0.1,0.0,0.0,0.0,0.1,0.0316865552518,0.0680388406853,0.03840613343,0.1,0.0,0.0,0.0,0.1,0.0,0.0,0.0,0.1,-0.0137735518325,0.270441839301,-9.62694168589,0.1,0.0,0.0,0.0,0.1,0.0,0.0,0.0,0.1
1474477160605592872,1651,1474477160612435102,sparus2,-0.0193230909456,0.139182790487,0.584470341787,0.799155296898,0.1,0.0,0.0,0.0,0.1,0.0,0.0,0.0,0.1,0.00289011728141,0.0510812972536,0.0475558099054,0.1,0.0,0.0,0.0,0.1,0.0,0.0,0.0,0.1,0.14242768472,-0.240760987628,-9.69655410679,0.1,0.0,0.0,0.0,0.1,0.0,0.0,0.0,0.1
1474477160706203112,1652,1474477160712203025,sparus2,-0.0208525382373,0.140584122412,0.586229728406,0.797581332346,0.1,0.0,0.0,0.0,0.1,0.0,0.0,0.0,0.1,-0.0123568140251,0.051173936347,0.0448938939574,0.1,0.0,0.0,0.0,0.1,0.0,0.0,0.0,0.1,0.219729973911,-0.488123132958,-9.32725880498,0.1,0.0,0.0,0.0,0.1,0.0,0.0,0.0,0.1
1474477160806819723,1653,1474477160812586069,sparus2,-0.0225043733627,0.14196954929,0.58824624887,0.795804342125,0.1,0.0,0.0,0.0,0.1,0.0,0.0,0.0,0.1,-0.0144073177358,0.051318185508,0.0469916436781,0.1,0.0,0.0,0.0,0.1,0.0,0.0,0.0,0.1,-0.206889871213,-0.550323441051,-9.45995309714,0.1,0.0,0.0,0.0,0.1,0.0,0.0,0.0,0.1
1474477160907457118,1654,1474477160911674022,sparus2,-0.0241453093204,0.142685215928,0.58998206771,0.794341924472,0.1,0.0,0.0,0.0,0.1,0.0,0.0,0.0,0.1,-0.0216704392295,0.0404107826315,0.0429556917811,0.1,0.0,0.0,0.0,0.1,0.0,0.0,0.0,0.1,0.392929733457,-0.253097518396,-9.54342068461,0.1,0.0,0.0,0.0,0.1,0.0,0.0,0.0,0.1
1474477161008169696,1655,1474477161009067058,sparus2,-0.0251996271707,0.143282644602,0.59186950009,0.792796037711,0.1,0.0,0.0,0.0,0.1,0.0,0.0,0.0,0.1,-0.012688935724,0.040356949254,0.0437923378156,0.1,0.0,0.0,0.0,0.1,0.0,0.0,0.0,0.1,-0.253977825132,-0.666812292318,-9.79062254303,0.1,0.0,0.0,0.0,0.1,0.0,0.0,0.0,0.1
1474477161098807114,1656,1474477161105123996,sparus2,-0.0262609936913,0.144898986093,0.593076816495,0.791564611245,0.1,0.0,0.0,0.0,0.1,0.0,0.0,0.0,0.1,0.00111403311645,0.0493753863118,0.0339043503576,0.1,0.0,0.0,0.0,0.1,0.0,0.0,0.0,0.1,0.178457940823,0.0342905217562,-9.53036049434,0.1,0.0,0.0,0.0,0.1,0.0,0.0,0.0,0.1
1474477161209490836,1657,1474477161215029954,sparus2,-0.0263421870865,0.146956356674,0.594576549387,0.790056102648,0.1,0.0,0.0,0.0,0.1,0.0,0.0,0.0,0.1,0.0195519978122,0.0470257046984,0.0392119382448,0.1,0.0,0.0,0.0,0.1,0.0,0.0,0.0,0.1,0.097216082592,-0.711669490286,-9.87918216307,0.1,0.0,0.0,0.0,0.1,0.0,0.0,0.0,0.1
1474477161310089516,1658,1474477161309139013,sparus2,-0.0257565105364,0.148882446753,0.59577274423,0.788812687808,0.1,0.0,0.0,0.0,0.1,0.0,0.0,0.0,0.1,0.0310827005046,0.0440685403128,0.0329672710299,0.1,0.0,0.0,0.0,0.1,0.0,0.0,0.0,0.1,-0.405226108908,-1.28399240817,-9.74003141436,0.1,0.0,0.0,0.0,0.1,0.0,0.0,0.0,0.1
1474477161410718737,1659,1474477161413264989,sparus2,-0.0251204636943,0.150572014173,0.596542326221,0.787930380096,0.1,0.0,0.0,0.0,0.1,0.0,0.0,0.0,0.1,0.0343971530979,0.0363746020014,0.0250127390388,0.1,0.0,0.0,0.0,0.1,0.0,0.0,0.0,0.1,-0.0960914262055,-0.169175152363,-9.96700892134,0.1,0.0,0.0,0.0,0.1,0.0,0.0,0.0,0.1
1474477161511409608,1660,1474477161510451078,sparus2,-0.0252141174461,0.151550318424,0.597221822556,0.787224773448,0.1,0.0,0.0,0.0,0.1,0.0,0.0,0.0,0.1,0.012068462681,0.0293073920672,0.0214553137559,0.1,0.0,0.0,0.0,0.1,0.0,0.0,0.0,0.1,0.478149359618,-0.297288577743,-9.65985913434,0.1,0.0,0.0,0.0,0.1,0.0,0.0,0.0,0.1
1474477161602017853,1661,1474477161606503963,sparus2,-0.0256108735067,0.152270720692,0.597866893088,0.786583046427,0.1,0.0,0.0,0.0,0.1,0.0,0.0,0.0,0.1,0.000540149101288,0.0245052182819,0.0165123544485,0.1,0.0,0.0,0.0,0.1,0.0,0.0,0.0,0.1,0.222821116367,-1.31114748301,-10.2241847736,0.1,0.0,0.0,0.0,0.1,0.0,0.0,0.0,0.1
1474477161702557857,1662,1474477161707495927,sparus2,-0.0262743302659,0.15228594462,0.598407564421,0.786146956671,0.1,0.0,0.0,0.0,0.1,0.0,0.0,0.0,0.1,-0.0102732982793,0.0158796080164,0.0117899534309,0.1,0.0,0.0,0.0,0.1,0.0,0.0,0.0,0.1,0.220467220994,-0.569340098012,-10.1199786594,0.1,0.0,0.0,0.0,0.1,0.0,0.0,0.0,0.1
1474477161803163901,1663,1474477161802364110,sparus2,-0.0259805689569,0.152509186461,0.598803002185,0.785812269347,0.1,0.0,0.0,0.0,0.1,0.0,0.0,0.0,0.1,0.00813150526628,0.0118699010776,0.01340957343,0.1,0.0,0.0,0.0,0.1,0.0,0.0,0.0,0.1,0.666818103085,-0.865383157787,-9.886041485,0.1,0.0,0.0,0.0,0.1,0.0,0.0,0.0,0.1
1474477161903795239,1664,1474477161904210090,sparus2,-0.0247541797862,0.153499196001,0.598964902797,0.785535659679,0.1,0.0,0.0,0.0,0.1,0.0,0.0,0.0,0.1,0.0326562725637,0.01269117875,0.0115627991261,0.1,0.0,0.0,0.0,0.1,0.0,0.0,0.0,0.1,0.569674614549,-0.767626343141,-9.82456063588,0.1,0.0,0.0,0.0,0.1,0.0,0.0,0.0,0.1
1474477161994400523,1665,1474477162000560045,sparus2,-0.0225759036358,0.155381998212,0.598455381713,0.785619449419,0.1,0.0,0.0,0.0,0.1,0.0,0.0,0.0,0.1,0.0642446425882,0.0155862111096,0.000368009217529,0.1,0.0,0.0,0.0,0.1,0.0,0.0,0.0,0.1,0.485041659822,-0.473396312118,-9.95059556187,0.1,0.0,0.0,0.0,0.1,0.0,0.0,0.0,0.1
1474477162094987911,1666,1474477162099441051,sparus2,-0.0194095803168,0.157670513075,0.597544675438,0.785941243576,0.1,0.0,0.0,0.0,0.1,0.0,0.0,0.0,0.1,0.0867295954335,0.00979703419859,-0.00652833188469,0.1,0.0,0.0,0.0,0.1,0.0,0.0,0.0,0.1,0.38703010041,-0.537248560546,-9.92884917942,0.1,0.0,0.0,0.0,0.1,0.0,0.0,0.0,0.1
1474477162205651690,1667,1474477162202948093,sparus2,-0.0153977971282,0.161018496774,0.596073322291,0.786468401141,0.1,0.0,0.0,0.0,0.1,0.0,0.0,0.0,0.1,0.108510659858,0.0150091552802,-0.0145111893449,0.1,0.0,0.0,0.0,0.1,0.0,0.0,0.0,0.1,0.424412053148,-0.826806460906,-9.93696025637,0.1,0.0,0.0,0.0,0.1,0.0,0.0,0.0,0.1
1474477162296249733,1668,1474477162297121047,sparus2,-0.0116033365839,0.164072149466,0.594346130271,0.78720922872,0.1,0.0,0.0,0.0,0.1,0.0,0.0,0.0,0.1,0.111626545364,0.0139192442192,-0.0235274092091,0.1,0.0,0.0,0.0,0.1,0.0,0.0,0.0,0.1,0.307289424771,-0.653072259129,-9.77357276388,0.1,0.0,0.0,0.0,0.1,0.0,0.0,0.0,0.1
1474477162386825765,1669,1474477162396265029,sparus2,-0.00838250426604,0.165864904596,0.5929132635,0.787954585628,0.1,0.0,0.0,0.0,0.1,0.0,0.0,0.0,0.1,0.0814433973913,-7.40670409726e-06,-0.0215120163322,0.1,0.0,0.0,0.0,0.1,0.0,0.0,0.0,0.1,0.324620689811,-1.18956278695,-9.86122124027,0.1,0.0,0.0,0.0,0.1,0.0,0.0,0.0,0.1
1474477162487448218,1670,1474477162492634057,sparus2,-0.00638281722329,0.1663173618,0.591486598638,0.788949553799,0.1,0.0,0.0,0.0,0.1,0.0,0.0,0.0,0.1,0.0470178375843,-0.00864149706311,-0.0259442742387,0.1,0.0,0.0,0.0,0.1,0.0,0.0,0.0,0.1,0.597992337611,-0.897833110452,-9.65187098133,0.1,0.0,0.0,0.0,0.1,0.0,0.0,0.0,0.1
1474477162588204308,1671,1474477162596307039,sparus2,-0.00488919600499,0.165670343318,0.590046531504,0.790173730117,0.1,0.0,0.0,0.0,0.1,0.0,0.0,0.0,0.1,0.0233269503075,-0.018835223492,-0.0326211246305,0.1,0.0,0.0,0.0,0.1,0.0,0.0,0.0,0.1,0.228056447942,-1.26111468792,-9.81593529363,0.1,0.0,0.0,0.0,0.1,0.0,0.0,0.0,0.1
1474477162688765459,1672,1474477162691967010,sparus2,-0.0044620548275,0.163989203107,0.588920198495,0.791366306546,0.1,0.0,0.0,0.0,0.1,0.0,0.0,0.0,0.1,-0.00683086563726,-0.0238994252012,-0.0322969129379,0.1,0.0,0.0,0.0,0.1,0.0,0.0,0.0,0.1,0.27219363218,-1.31500743785,-9.7526064449,0.1,0.0,0.0,0.0,0.1,0.0,0.0,0.0,0.1
1474477162789360787,1673,1474477162790455102,sparus2,-0.00462261179147,0.161946563901,0.587967489045,0.792493642704,0.1,0.0,0.0,0.0,0.1,0.0,0.0,0.0,0.1,-0.0227261927924,-0.0290572466922,-0.0294525839315,0.1,0.0,0.0,0.0,0.1,0.0,0.0,0.0,0.1,0.418271942493,-1.16677484277,-9.52222842751,0.1,0.0,0.0,0.0,0.1,0.0,0.0,0.0,0.1
1474477162890020872,1674,1474477162893421888,sparus2,-0.00559113497083,0.159251272826,0.586771136976,0.7939190161,0.1,0.0,0.0,0.0,0.1,0.0,0.0,0.0,0.1,-0.0397096954698,-0.0288392779525,-0.0374303711951,0.1,0.0,0.0,0.0,0.1,0.0,0.0,0.0,0.1,0.322104109599,-0.835261640005,-9.97004143394,0.1,0.0,0.0,0.0,0.1,0.0,0.0,0.0,0.1
1474477162980608028,1675,1474477162990503072,sparus2,-0.00655735083901,0.156101382173,0.585884043114,0.795191327705,0.1,0.0,0.0,0.0,0.1,0.0,0.0,0.0,0.1,-0.0475918658552,-0.0305505812624,-0.0356274543302,0.1,0.0,0.0,0.0,0.1,0.0,0.0,0.0,0.1,-0.0084217200357,-1.09983010574,-9.5760697112,0.1,0.0,0.0,0.0,0.1,0.0,0.0,0.0,0.1
1474477163081234648,1676,1474477163088171005,sparus2,-0.00698145374387,0.153136543478,0.584834583468,0.796535603934,0.1,0.0,0.0,0.0,0.1,0.0,0.0,0.0,0.1,-0.0354572691698,-0.0340668392852,-0.0360502434422,0.1,0.0,0.0,0.0,0.1,0.0,0.0,0.0,0.1,0.0221405148804,-1.01994826386,-9.65379347909,0.1,0.0,0.0,0.0,0.1,0.0,0.0,0.0,0.1
1474477163182271777,1677,1474477163186342954,sparus2,-0.00691821366341,0.150726499077,0.583803211961,0.797751509243,0.1,0.0,0.0,0.0,0.1,0.0,0.0,0.0,0.1,-0.0253329753426,-0.030694522382,-0.0357355036332,0.1,0.0,0.0,0.0,0.1,0.0,0.0,0.0,0.1,-0.127046202299,-1.93532143067,-9.78453689248,0.1,0.0,0.0,0.0,0.1,0.0,0.0,0.0,0.1
1474477163282838608,1678,1474477163287065982,sparus2,-0.00732666195729,0.147852271865,0.582904112435,0.79894231421,0.1,0.0,0.0,0.0,0.1,0.0,0.0,0.0,0.1,-0.0316168285879,-0.0302971381952,-0.0306972950389,0.1,0.0,0.0,0.0,0.1,0.0,0.0,0.0,0.1,-0.229005938139,-0.612287338064,-9.65666135354,0.1,0.0,0.0,0.0,0.1,0.0,0.0,0.0,0.1
1474477163383479874,1679,1474477163384937047,sparus2,-0.00823458328364,0.144787218228,0.581860428283,0.800254518934,0.1,0.0,0.0,0.0,0.1,0.0,0.0,0.0,0.1,-0.0465933564787,-0.0375607244288,-0.0349176208131,0.1,0.0,0.0,0.0,0.1,0.0,0.0,0.0,0.1,0.271282207194,-0.564546019169,-9.38157300427,0.1,0.0,0.0,0.0,0.1,0.0,0.0,0.0,0.1
1474477163484088620,1680,1474477163482820034,sparus2,-0.00942887628736,0.141197509067,0.581149394006,0.801398615903,0.1,0.0,0.0,0.0,0.1,0.0,0.0,0.0,0.1,-0.0577583826754,-0.0331570455106,-0.0339312587814,0.1,0.0,0.0,0.0,0.1,0.0,0.0,0.0,0.1,-0.540244143794,-1.15508628786,-9.78892430928,0.1,0.0,0.0,0.0,0.1,0.0,0.0,0.0,0.1
1474477163584765027,1681,1474477163586726903,sparus2,-0.0105265847023,0.137027838123,0.580298676541,0.802724117365,0.1,0.0,0.0,0.0,0.1,0.0,0.0,0.0,0.1,-0.0540686864921,-0.0410677572988,-0.0322971385411,0.1,0.0,0.0,0.0,0.1,0.0,0.0,0.0,0.1,-0.470641136362,-0.137867062348,-9.73763627103,0.1,0.0,0.0,0.0,0.1,0.0,0.0,0.0,0.1
1474477163685491812,1682,1474477163684720993,sparus2,-0.0114355520734,0.133651557097,0.579682270716,0.803725671142,0.1,0.0,0.0,0.0,0.1,0.0,0.0,0.0,0.1,-0.0534109921483,-0.0355062419804,-0.02848173043,0.1,0.0,0.0,0.0,0.1,0.0,0.0,0.0,0.1,-0.268677607992,-1.0737833786,-9.82347773746,0.1,0.0,0.0,0.0,0.1,0.0,0.0,0.0,0.1
1474477163776217652,1683,1474477163779680013,sparus2,-0.01258006457,0.129810049011,0.579277543689,0.804629492704,0.1,0.0,0.0,0.0,0.1,0.0,0.0,0.0,0.1,-0.0575852996009,-0.037602135407,-0.0230223272807,0.1,0.0,0.0,0.0,0.1,0.0,0.0,0.0,0.1,-0.51232880432,-0.268871940198,-9.70732698037,0.1,0.0,0.0,0.0,0.1,0.0,0.0,0.0,0.1
1474477163886990008,1684,1474477163889003038,sparus2,-0.0152959855834,0.125706579543,0.578910803292,0.805497467728,0.1,0.0,0.0,0.0,0.1,0.0,0.0,0.0,0.1,-0.0816962511134,-0.0270346114373,-0.0241630420883,0.1,0.0,0.0,0.0,0.1,0.0,0.0,0.0,0.1,-0.770464721537,-0.807292417473,-10.1761051312,0.1,0.0,0.0,0.0,0.1,0.0,0.0,0.0,0.1
1474477163987545035,1685,1474477163993731021,sparus2,-0.0174723665068,0.120983958062,0.579350145681,0.805860414091,0.1,0.0,0.0,0.0,0.1,0.0,0.0,0.0,0.1,-0.0853771357766,-0.0362092490651,-0.00834533230751,0.1,0.0,0.0,0.0,0.1,0.0,0.0,0.0,0.1,-0.964597673559,-0.321143184423,-9.89533476183,0.1,0.0,0.0,0.0,0.1,0.0,0.0,0.0,0.1
1474477164078215041,1686,1474477164077250957,sparus2,-0.0192371828893,0.117146941171,0.579737929533,0.806108217319,0.1,0.0,0.0,0.0,0.1,0.0,0.0,0.0,0.1,-0.0770246329651,-0.0317744592244,-0.00336426873776,0.1,0.0,0.0,0.0,0.1,0.0,0.0,0.0,0.1,-0.6370567442,0.0804185299092,-9.67692201719,0.1,0.0,0.0,0.0,0.1,0.0,0.0,0.0,0.1
1474477164168811614,1687,1474477164174673080,sparus2,-0.0210079232429,0.113493917943,0.579653287872,0.806647298148,0.1,0.0,0.0,0.0,0.1,0.0,0.0,0.0,0.1,-0.0656237083384,-0.0259842621032,-0.0135305994942,0.1,0.0,0.0,0.0,0.1,0.0,0.0,0.0,0.1,-0.714786832618,0.352023621102,-9.88922303444,0.1,0.0,0.0,0.0,0.1,0.0,0.0,0.0,0.1
1474477164279536894,1688,1474477164280747890,sparus2,-0.0223121839239,0.110376539951,0.57983504067,0.806914190907,0.1,0.0,0.0,0.0,0.1,0.0,0.0,0.0,0.1,-0.0530381223918,-0.0209440883487,-0.00675514123162,0.1,0.0,0.0,0.0,0.1,0.0,0.0,0.0,0.1,-0.806055069223,-0.387824697943,-9.7360202416,0.1,0.0,0.0,0.0,0.1,0.0,0.0,0.0,0.1
1474477164380194377,1689,1474477164380135059,sparus2,-0.0220922941545,0.108532771357,0.580043475389,0.807020529317,0.1,0.0,0.0,0.0,0.1,0.0,0.0,0.0,0.1,-0.0123969557027,-0.0190766602999,0.00201479318268,0.1,0.0,0.0,0.0,0.1,0.0,0.0,0.0,0.1,-0.711764151849,0.336648016922,-9.84998814527,0.1,0.0,0.0,0.0,0.1,0.0,0.0,0.0,0.1
1474477164470774919,1690,1474477164474438905,sparus2,-0.0209381972948,0.107957618064,0.580417554531,0.806859471648,0.1,0.0,0.0,0.0,0.1,0.0,0.0,0.0,0.1,0.0135642302888,-0.0149778555392,0.00818358723058,0.1,0.0,0.0,0.0,0.1,0.0,0.0,0.0,0.1,-1.15025116102,-0.187771895843,-9.40363904876,0.1,0.0,0.0,0.0,0.1,0.0,0.0,0.0,0.1
1474477164571454547,1691,1474477164576003074,sparus2,-0.0189703387403,0.107857518598,0.581272493208,0.806305879037,0.1,0.0,0.0,0.0,0.1,0.0,0.0,0.0,0.1,0.0284300050787,-0.00979810129292,0.0217964981296,0.1,0.0,0.0,0.0,0.1,0.0,0.0,0.0,0.1,-0.713553958151,-0.817305121484,-9.58672632742,0.1,0.0,0.0,0.0,0.1,0.0,0.0,0.0,0.1
1474477164672125835,1692,1474477164674000024,sparus2,-0.0160411890148,0.109189823226,0.581337747586,0.806143092751,0.1,0.0,0.0,0.0,0.1,0.0,0.0,0.0,0.1,0.0682797437258,0.00100922756695,0.0116076029587,0.1,0.0,0.0,0.0,0.1,0.0,0.0,0.0,0.1,-0.602478289566,-0.12914384193,-9.70052995746,0.1,0.0,0.0,0.0,0.1,0.0,0.0,0.0,0.1
1474477164772792579,1693,1474477164771590948,sparus2,-0.0136341005873,0.109348353809,0.581861459352,0.805787993794,0.1,0.0,0.0,0.0,0.1,0.0,0.0,0.0,0.1,0.0442939192069,-0.0116149973798,0.0183150529414,0.1,0.0,0.0,0.0,0.1,0.0,0.0,0.0,0.1,-0.690095781338,-0.206587782285,-9.62373016686,0.1,0.0,0.0,0.0,0.1,0.0,0.0,0.0,0.1
1474477164863444025,1694,1474477164869008064,sparus2,-0.0108922774184,0.109322888823,0.582444350968,0.805411970545,0.1,0.0,0.0,0.0,0.1,0.0,0.0,0.0,0.1,0.0482987017568,-0.018236275142,0.0201218012809,0.1,0.0,0.0,0.0,0.1,0.0,0.0,0.0,0.1,-0.82712079131,-0.158987084978,-9.82982950124,0.1,0.0,0.0,0.0,0.1,0.0,0.0,0.0,0.1
1474477164964093687,1695,1474477164971987009,sparus2,-0.00781344326617,0.109273456039,0.58333899787,0.804806731752,0.1,0.0,0.0,0.0,0.1,0.0,0.0,0.0,0.1,0.050737269653,-0.0218343436492,0.028408953736,0.1,0.0,0.0,0.0,0.1,0.0,0.0,0.0,0.1,-0.658461706142,-0.0376060613138,-9.59916401624,0.1,0.0,0.0,0.0,0.1,0.0,0.0,0.0,0.1
1474477165064734344,1696,1474477165069788932,sparus2,-0.00463960629595,0.109280340088,0.584551363271,0.803950237902,0.1,0.0,0.0,0.0,0.1,0.0,0.0,0.0,0.1,0.053738681861,-0.0232365540743,0.0385557273447,0.1,0.0,0.0,0.0,0.1,0.0,0.0,0.0,0.1,-0.596020542062,-0.321267104477,-9.74023703768,0.1,0.0,0.0,0.0,0.1,0.0,0.0,0.0,0.1
1474477165165286542,1697,1474477165168021917,sparus2,-0.00072714304018,0.109886133442,0.585774808921,0.802989652594,0.1,0.0,0.0,0.0,0.1,0.0,0.0,0.0,0.1,0.0728744399015,-0.0218555747874,0.0419501577613,0.1,0.0,0.0,0.0,0.1,0.0,0.0,0.0,0.1,-0.616342063095,-0.326287028795,-9.89751194324,0.1,0.0,0.0,0.0,0.1,0.0,0.0,0.0,0.1
1474477165265919211,1698,1474477165271091938,sparus2,0.00360678701797,0.111329366182,0.587175357771,0.801759229781,0.1,0.0,0.0,0.0,0.1,0.0,0.0,0.0,0.1,0.0831610182563,-0.0185408260036,0.0468479387384,0.1,0.0,0.0,0.0,0.1,0.0,0.0,0.0,0.1,-0.393029399315,-0.442203226869,-10.0040665391,0.1,0.0,0.0,0.0,0.1,0.0,0.0,0.0,0.1
1474477165366608481,1699,1474477165368491888,sparus2,0.00864921839727,0.11308844413,0.588677285662,0.800371943643,0.1,0.0,0.0,0.0,0.1,0.0,0.0,0.0,0.1,0.102270642952,-0.0219736421729,0.0532936247887,0.1,0.0,0.0,0.0,0.1,0.0,0.0,0.0,0.1,-0.634871615846,-0.710064353921,-10.032362787,0.1,0.0,0.0,0.0,0.1,0.0,0.0,0.0,0.1
1474477165457169778,1700,1474477165465976953,sparus2,0.0135009274838,0.11473198264,0.59018974076,0.798955797913,0.1,0.0,0.0,0.0,0.1,0.0,0.0,0.0,0.1,0.099068768899,-0.0158811656382,0.0542645096827,0.1,0.0,0.0,0.0,0.1,0.0,0.0,0.0,0.1,-0.537830864921,-0.896322179834,-9.78810307613,0.1,0.0,0.0,0.0,0.1,0.0,0.0,0.0,0.1
1474477165557930004,1701,1474477165564738988,sparus2,0.0177885741352,0.116141437416,0.591234027273,0.79789539298,0.1,0.0,0.0,0.0,0.1,0.0,0.0,0.0,0.1,0.0857917036131,-0.0198164395523,0.0399310446381,0.1,0.0,0.0,0.0,0.1,0.0,0.0,0.0,0.1,-0.586381549645,-1.14224048689,-10.1034946602,0.1,0.0,0.0,0.0,0.1,0.0,0.0,0.0,0.1
1474477165658592245,1702,1474477165666532039,sparus2,0.0219386639565,0.116604364082,0.591904192573,0.79722741054,0.1,0.0,0.0,0.0,0.1,0.0,0.0,0.0,0.1,0.0732160055238,-0.0286998810757,0.0327718149839,0.1,0.0,0.0,0.0,0.1,0.0,0.0,0.0,0.1,-0.227513052106,-0.587688878872,-9.61733065684,0.1,0.0,0.0,0.0,0.1,0.0,0.0,0.0,0.1
1474477165759210166,1703,1474477165764600992,sparus2,0.0255376898113,0.11663567974,0.592248073592,0.79686019096,0.1,0.0,0.0,0.0,0.1,0.0,0.0,0.0,0.1,0.0588921228549,-0.0365768025748,0.0199110516261,0.1,0.0,0.0,0.0,0.1,0.0,0.0,0.0,0.1,-0.392494122886,-1.47495432717,-10.1641062149,0.1,0.0,0.0,0.0,0.1,0.0,0.0,0.0,0.1
1474477165860056143,1704,1474477165862592935,sparus2,0.0281707242121,0.115394481029,0.59194755244,0.797175400527,0.1,0.0,0.0,0.0,0.1,0.0,0.0,0.0,0.1,0.031004327353,-0.0423576312534,0.00106953152321,0.1,0.0,0.0,0.0,0.1,0.0,0.0,0.0,0.1,-0.410455721535,-1.1641887225,-9.70052279581,0.1,0.0,0.0,0.0,0.1,0.0,0.0,0.0,0.1
1474477165960737841,1705,1474477165968353986,sparus2,0.0307635554705,0.114211711364,0.591243436948,0.797772202391,0.1,0.0,0.0,0.0,0.1,0.0,0.0,0.0,0.1,0.0286246464702,-0.0448803296267,-0.00967497531738,0.1,0.0,0.0,0.0,0.1,0.0,0.0,0.0,0.1,-0.370581825364,-1.34048124618,-10.0299534104,0.1,0.0,0.0,0.0,0.1,0.0,0.0,0.0,0.1
1474477166061347716,1706,1474477166063239097,sparus2,0.0327218355528,0.113207375293,0.59008695497,0.798693155868,0.1,0.0,0.0,0.0,0.1,0.0,0.0,0.0,0.1,0.0245378772705,-0.0373432562779,-0.0236192678398,0.1,0.0,0.0,0.0,0.1,0.0,0.0,0.0,0.1,-0.713748033242,-0.777503309939,-10.1358573038,0.1,0.0,0.0,0.0,0.1,0.0,0.0,0.0,0.1
1474477166161986715,1707,1474477166162576913,sparus2,0.0342746611681,0.111772081516,0.588918068744,0.799692289385,0.1,0.0,0.0,0.0,0.1,0.0,0.0,0.0,0.1,0.0148801664922,-0.0329197213019,-0.0244218119397,0.1,0.0,0.0,0.0,0.1,0.0,0.0,0.0,0.1,-0.862895627339,-0.813080405834,-9.87946818158,0.1,0.0,0.0,0.0,0.1,0.0,0.0,0.0,0.1
1474477166252506429,1708,1474477166260128021,sparus2,0.0355936578325,0.110197232442,0.587632827099,0.800797928319,0.1,0.0,0.0,0.0,0.1,0.0,0.0,0.0,0.1,0.00947279567314,-0.0324772186504,-0.0286479763427,0.1,0.0,0.0,0.0,0.1,0.0,0.0,0.0,0.1,-0.969897599022,-0.846726566341,-9.75577407609,0.1,0.0,0.0,0.0,0.1,0.0,0.0,0.0,0.1
1474477166363186524,1709,1474477166365977048,sparus2,0.0364581768353,0.108984485879,0.586091748447,0.802053393224,0.1,0.0,0.0,0.0,0.1,0.0,0.0,0.0,0.1,0.00662171620254,-0.020541577018,-0.0322837174199,0.1,0.0,0.0,0.0,0.1,0.0,0.0,0.0,0.1,-0.887948085209,-0.778718788996,-9.84054129985,0.1,0.0,0.0,0.0,0.1,0.0,0.0,0.0,0.1
1474477166453769033,1710,1474477166461904048,sparus2,0.0364371201867,0.108185917809,0.584576473898,0.803267383643,0.1,0.0,0.0,0.0,0.1,0.0,0.0,0.0,0.1,-0.0044199553584,-0.00460265495947,-0.0382299741327,0.1,0.0,0.0,0.0,0.1,0.0,0.0,0.0,0.1,-0.917265536965,-1.11626815242,-9.52033730962,0.1,0.0,0.0,0.0,0.1,0.0,0.0,0.0,0.1
1474477166554401658,1711,1474477166560410022,sparus2,0.0359209664846,0.106880093007,0.583025690412,0.804591433092,0.1,0.0,0.0,0.0,0.1,0.0,0.0,0.0,0.1,-0.01700069135,-0.00658455064314,-0.0406322276333,0.1,0.0,0.0,0.0,0.1,0.0,0.0,0.0,0.1,-1.07224920475,-0.830867696912,-9.65539368667,0.1,0.0,0.0,0.0,0.1,0.0,0.0,0.0,0.1
1474477166665108547,1712,1474477166663810014,sparus2,0.034993473089,0.10605155976,0.581128508493,0.806113007047,0.1,0.0,0.0,0.0,0.1,0.0,0.0,0.0,0.1,-0.0164089141457,0.00474120961173,-0.0460855895639,0.1,0.0,0.0,0.0,0.1,0.0,0.0,0.0,0.1,-0.958003891877,-0.795461325041,-9.755425034,0.1,0.0,0.0,0.0,0.1,0.0,0.0,0.0,0.1
1474477166755636461,1713,1474477166762001991,sparus2,0.0333944537303,0.10499344426,0.579713047345,0.807337581103,0.1,0.0,0.0,0.0,0.1,0.0,0.0,0.0,0.1,-0.0318461345124,0.0117909292709,-0.041840674289,0.1,0.0,0.0,0.0,0.1,0.0,0.0,0.0,0.1,-1.30953636816,-0.718377118012,-9.62754156387,0.1,0.0,0.0,0.0,0.1,0.0,0.0,0.0,0.1
1474477166856745847,1714,1474477166856218099,sparus2,0.0307487249861,0.103206783147,0.578751216329,0.808362483928,0.1,0.0,0.0,0.0,0.1,0.0,0.0,0.0,0.1,-0.0616293928171,0.0142178304667,-0.0376528002626,0.1,0.0,0.0,0.0,0.1,0.0,0.0,0.0,0.1,-1.75178314246,-1.46197263526,-9.66054652416,0.1,0.0,0.0,0.0,0.1,0.0,0.0,0.0,0.1
1474477166957386770,1715,1474477166959007024,sparus2,0.027440550221,0.101699905707,0.577681997662,0.809436628131,0.1,0.0,0.0,0.0,0.1,0.0,0.0,0.0,0.1,-0.0674154411251,0.0176017723999,-0.0363498864084,0.1,0.0,0.0,0.0,0.1,0.0,0.0,0.0,0.1,-1.49872399267,-1.58705946876,-9.96280328481,0.1,0.0,0.0,0.0,0.1,0.0,0.0,0.0,0.1
1474477167047961243,1716,1474477167056745052,sparus2,0.0236684706502,0.100187773066,0.576631155282,0.810492889779,0.1,0.0,0.0,0.0,0.1,0.0,0.0,0.0,0.1,-0.0737873701587,0.0328196876816,-0.0416615574305,0.1,0.0,0.0,0.0,0.1,0.0,0.0,0.0,0.1,-1.83487506505,-0.675144659813,-9.7144503319,0.1,0.0,0.0,0.0,0.1,0.0,0.0,0.0,0.1
1474477167148700580,1717,1474477167156085968,sparus2,0.0193995775984,0.0986924154449,0.575726442131,0.81143239235,0.1,0.0,0.0,0.0,0.1,0.0,0.0,0.0,0.1,-0.0830883915528,0.0372420024207,-0.0354725881681,0.1,0.0,0.0,0.0,0.1,0.0,0.0,0.0,0.1,-1.39233369243,-0.827218536326,-9.86461399504,0.1,0.0,0.0,0.0,0.1,0.0,0.0,0.0,0.1
1474477167249320929,1718,1474477167253211975,sparus2,0.0153103194252,0.0971946890877,0.574688478192,0.812435806427,0.1,0.0,0.0,0.0,0.1,0.0,0.0,0.0,0.1,-0.082014096385,0.0352809118799,-0.039198659957,0.1,0.0,0.0,0.0,0.1,0.0,0.0,0.0,0.1,-1.39082606443,-1.04458018206,-9.73185731383,0.1,0.0,0.0,0.0,0.1,0.0,0.0,0.0,0.1
1474477167349941431,1719,1474477167356246948,sparus2,0.0107476729878,0.0957636788694,0.573531774609,0.813495610836,0.1,0.0,0.0,0.0,0.1,0.0,0.0,0.0,0.1,-0.0825414787948,0.0395327055871,-0.0389883474526,0.1,0.0,0.0,0.0,0.1,0.0,0.0,0.0,0.1,-1.31198779076,-0.590091650481,-9.87043240278,0.1,0.0,0.0,0.0,0.1,0.0,0.0,0.0,0.1
1474477167450595910,1720,1474477167454449892,sparus2,0.00602713457297,0.0948542371295,0.572412328092,0.814438747848,0.1,0.0,0.0,0.0,0.1,0.0,0.0,0.0,0.1,-0.0867385560437,0.0435916850134,-0.0366000202868,0.1,0.0,0.0,0.0,0.1,0.0,0.0,0.0,0.1,-0.398572943724,-0.757739055764,-9.4950943392,0.1,0.0,0.0,0.0,0.1,0.0,0.0,0.0,0.1
1474477167551226712,1721,1474477167552613019,sparus2,0.00144323932318,0.0938178999222,0.571202437726,0.815428656506,0.1,0.0,0.0,0.0,0.1,0.0,0.0,0.0,0.1,-0.0850808686066,0.0410608617122,-0.0407175155823,0.1,0.0,0.0,0.0,0.1,0.0,0.0,0.0,0.1,-1.1625392081,-0.901258254332,-9.99447546035,0.1,0.0,0.0,0.0,0.1,0.0,0.0,0.0,0.1
1474477167651869401,1722,1474477167654635906,sparus2,-0.00269069630386,0.091903100119,0.569908939945,0.816547843371,0.1,0.0,0.0,0.0,0.1,0.0,0.0,0.0,0.1,-0.0800279775049,0.0268056678143,-0.0388761606169,0.1,0.0,0.0,0.0,0.1,0.0,0.0,0.0,0.1,-1.05809108856,0.0599287956641,-9.77801350447,0.1,0.0,0.0,0.0,0.1,0.0,0.0,0.0,0.1
1474477167752485663,1723,1474477167752475976,sparus2,-0.00603155325207,0.0901086079474,0.568692881773,0.817577192295,0.1,0.0,0.0,0.0,0.1,0.0,0.0,0.0,0.1,-0.070644498907,0.0212475838821,-0.0379219654934,0.1,0.0,0.0,0.0,0.1,0.0,0.0,0.0,0.1,-1.13264096659,-0.167738226282,-9.77207190275,0.1,0.0,0.0,0.0,0.1,0.0,0.0,0.0,0.1
1474477167843108493,1724,1474477167850326061,sparus2,-0.00904149511571,0.0887300620806,0.567372726052,0.818616770645,0.1,0.0,0.0,0.0,0.1,0.0,0.0,0.0,0.1,-0.0631672672036,0.0170746486622,-0.039804151112,0.1,0.0,0.0,0.0,0.1,0.0,0.0,0.0,0.1,-1.08999439884,-0.698284495132,-10.008370802,0.1,0.0,0.0,0.0,0.1,0.0,0.0,0.0,0.1
1474477167943752512,1725,1474477167949098110,sparus2,-0.0104242799111,0.0881765133063,0.566181661803,0.819484327323,0.1,0.0,0.0,0.0,0.1,0.0,0.0,0.0,0.1,-0.021990826741,0.0190514641296,-0.0301427397744,0.1,0.0,0.0,0.0,0.1,0.0,0.0,0.0,0.1,-1.00548851044,0.274307419431,-9.729428707,0.1,0.0,0.0,0.0,0.1,0.0,0.0,0.0,0.1
1474477168054376178,1726,1474477168054125070,sparus2,-0.0114714747563,0.0873351939287,0.565630690691,0.819940785006,0.1,0.0,0.0,0.0,0.1,0.0,0.0,0.0,0.1,-0.0189566683012,0.0106416539833,-0.0128920900977,0.1,0.0,0.0,0.0,0.1,0.0,0.0,0.0,0.1,-1.07627691753,0.515327208485,-9.91816962025,0.1,0.0,0.0,0.0,0.1,0.0,0.0,0.0,0.1
1474477168144955939,1727,1474477168150816917,sparus2,-0.0115131494024,0.0869611326532,0.565860520949,0.819821370561,0.1,0.0,0.0,0.0,0.1,0.0,0.0,0.0,0.1,-0.00312554753775,0.00822414044397,0.00543808404327,0.1,0.0,0.0,0.0,0.1,0.0,0.0,0.0,0.1,-1.08080058039,-0.29233254706,-9.6382133224,0.1,0.0,0.0,0.0,0.1,0.0,0.0,0.0,0.1
1474477168245989357,1728,1474477168248609066,sparus2,-0.0105392055854,0.086856409143,0.566913948793,0.819117490962,0.1,0.0,0.0,0.0,0.1,0.0,0.0,0.0,0.1,0.0173690924008,0.00254195733532,0.0274113831096,0.1,0.0,0.0,0.0,0.1,0.0,0.0,0.0,0.1,-1.2517095883,0.0941177725453,-9.78891714317,0.1,0.0,0.0,0.0,0.1,0.0,0.0,0.0,0.1
1474477168346645827,1729,1474477168353692054,sparus2,-0.00945202612571,0.0875420420508,0.568656765341,0.817848722752,0.1,0.0,0.0,0.0,0.1,0.0,0.0,0.0,0.1,0.0227372971529,0.00613257524795,0.0456647373531,0.1,0.0,0.0,0.0,0.1,0.0,0.0,0.0,0.1,-0.569975780265,-0.307220277863,-10.045779091,0.1,0.0,0.0,0.0,0.1,0.0,0.0,0.0,0.1
1474477168447309682,1730,1474477168448493003,sparus2,-0.0081735708817,0.0880353330384,0.571408936231,0.815888963322,0.1,0.0,0.0,0.0,0.1,0.0,0.0,0.0,0.1,0.0241854065891,0.00407790931685,0.0702826363279,0.1,0.0,0.0,0.0,0.1,0.0,0.0,0.0,0.1,-1.44375463113,0.0640186375261,-9.93337815639,0.1,0.0,0.0,0.0,0.1,0.0,0.0,0.0,0.1
1474477168547931802,1731,1474477168546680927,sparus2,-0.00704248437292,0.0877925303002,0.575290401557,0.813193598667,0.1,0.0,0.0,0.0,0.1,0.0,0.0,0.0,0.1,0.00966355274542,-0.0047685384426,0.104733616889,0.1,0.0,0.0,0.0,0.1,0.0,0.0,0.0,0.1,0.0629004727985,-0.461801242634,-9.96529776392,0.1,0.0,0.0,0.0,0.1,0.0,0.0,0.0,0.1
1474477168638617326,1732,1474477168644926071,sparus2,-0.00679156275286,0.0860852899076,0.579880010081,0.810112567144,0.1,0.0,0.0,0.0,0.1,0.0,0.0,0.0,0.1,-0.0229830603056,-0.0191324195755,0.111583607049,0.1,0.0,0.0,0.0,0.1,0.0,0.0,0.0,0.1,-1.44745893294,-0.348465273932,-10.0602273339,0.1,0.0,0.0,0.0,0.1,0.0,0.0,0.0,0.1
1474477168739235067,1733,1474477168747195005,sparus2,-0.00739355446583,0.0834150148345,0.586074895573,0.805917791981,0.1,0.0,0.0,0.0,0.1,0.0,0.0,0.0,0.1,-0.0467475834315,-0.0235527509627,0.146242832185,0.1,0.0,0.0,0.0,0.1,0.0,0.0,0.0,0.1,-0.827307804864,0.808829633828,-10.1956892,0.1,0.0,0.0,0.0,0.1,0.0,0.0,0.0,0.1
1474477168839915608,1734,1474477168845886945,sparus2,-0.0103625667344,0.0772761528935,0.593122606299,0.801328014799,0.1,0.0,0.0,0.0,0.1,0.0,0.0,0.0,0.1,-0.128559233351,-0.0509050984859,0.161906555017,0.1,0.0,0.0,0.0,0.1,0.0,0.0,0.0,0.1,-2.0094928063,1.28358734727,-10.0173921586,0.1,0.0,0.0,0.0,0.1,0.0,0.0,0.0,0.1
1474477168940576299,1735,1474477168943968057,sparus2,-0.0137689458368,0.0700906547545,0.600621864118,0.796336042503,0.1,0.0,0.0,0.0,0.1,0.0,0.0,0.0,0.1,-0.154855476926,-0.0662063156306,0.177567105889,0.1,0.0,0.0,0.0,0.1,0.0,0.0,0.0,0.1,-0.580053446077,-0.503243177356,-10.0073038605,0.1,0.0,0.0,0.0,0.1,0.0,0.0,0.0,0.1
1474477169051299624,1736,1474477169051752090,sparus2,-0.0175000034234,0.062228523737,0.609880476408,0.789852622462,0.1,0.0,0.0,0.0,0.1,0.0,0.0,0.0,0.1,-0.151362322064,-0.055897214812,0.199623072496,0.1,0.0,0.0,0.0,0.1,0.0,0.0,0.0,0.1,-1.88672313168,0.61942467315,-9.75846361919,0.1,0.0,0.0,0.0,0.1,0.0,0.0,0.0,0.1
1474477169141888651,1737,1474477169145754098,sparus2,-0.0210966443276,0.0549867196608,0.618783326243,0.783350871209,0.1,0.0,0.0,0.0,0.1,0.0,0.0,0.0,0.1,-0.162941826146,-0.0637037424611,0.224210606709,0.1,0.0,0.0,0.0,0.1,0.0,0.0,0.0,0.1,-1.49018472898,1.02914599251,-9.9155271844,0.1,0.0,0.0,0.0,0.1,0.0,0.0,0.0,0.1
1474477169242566213,1738,1474477169243308067,sparus2,-0.023632856461,0.0488016416233,0.628381300593,0.77601342059,0.1,0.0,0.0,0.0,0.1,0.0,0.0,0.0,0.1,-0.133292533773,-0.0506996279054,0.239688944713,0.1,0.0,0.0,0.0,0.1,0.0,0.0,0.0,0.1,-1.55745152385,-0.414954666602,-9.77190685957,0.1,0.0,0.0,0.0,0.1,0.0,0.0,0.0,0.1
1474477169343438960,1739,1474477169346602916,sparus2,-0.0261793572367,0.0423325557293,0.63897711895,0.767613729318,0.1,0.0,0.0,0.0,0.1,0.0,0.0,0.0,0.1,-0.12933471077,-0.0521615389229,0.257032557563,0.1,0.0,0.0,0.0,0.1,0.0,0.0,0.0,0.1,-1.50920858117,0.137448866165,-9.49482627737,0.1,0.0,0.0,0.0,0.1,0.0,0.0,0.0,0.1
1474477169444083503,1740,1474477169444251060,sparus2,-0.0284543880658,0.0370926187876,0.649748124528,0.758710656379,0.1,0.0,0.0,0.0,0.1,0.0,0.0,0.0,0.1,-0.108950197951,-0.039073609882,0.283206892454,0.1,0.0,0.0,0.0,0.1,0.0,0.0,0.0,0.1,-1.43768040455,1.64733713877,-9.39493983843,0.1,0.0,0.0,0.0,0.1,0.0,0.0,0.0,0.1
1474477169534648468,1741,1474477169542622089,sparus2,-0.0297976714982,0.0339685457718,0.661121896514,0.748916600578,0.1,0.0,0.0,0.0,0.1,0.0,0.0,0.0,0.1,-0.0757946815828,-0.0175686649236,0.303462015542,0.1,0.0,0.0,0.0,0.1,0.0,0.0,0.0,0.1,-1.60059867371,0.139401586509,-9.84155382856,0.1,0.0,0.0,0.0,0.1,0.0,0.0,0.0,0.1
1474477169635246818,1742,1474477169641324043,sparus2,-0.0303200977588,0.0326705077067,0.672488698318,0.738764022021,0.1,0.0,0.0,0.0,0.1,0.0,0.0,0.0,0.1,-0.0354374059592,-0.00922958570284,0.314262361681,0.1,0.0,0.0,0.0,0.1,0.0,0.0,0.0,0.1,-0.432381836833,1.60656760111,-9.09618256393,0.1,0.0,0.0,0.0,0.1,0.0,0.0,0.0,0.1
1474477169735888973,1743,1474477169742708921,sparus2,-0.0300344013896,0.0329911094924,0.68513135987,0.727051952168,0.1,0.0,0.0,0.0,0.1,0.0,0.0,0.0,0.1,0.000591788605173,0.0118293272284,0.339293719372,0.1,0.0,0.0,0.0,0.1,0.0,0.0,0.0,0.1,-1.18900686956,1.56966331139,-9.63435372463,0.1,0.0,0.0,0.0,0.1,0.0,0.0,0.0,0.1
1474477169847116291,1744,1474477169844650030,sparus2,-0.0280210860477,0.0367712949724,0.697003494724,0.715575865262,0.1,0.0,0.0,0.0,0.1,0.0,0.0,0.0,0.1,0.0714435434284,0.0332383201467,0.345277736882,0.1,0.0,0.0,0.0,0.1,0.0,0.0,0.0,0.1,-0.246331739895,1.68336236999,-9.25768795878,0.1,0.0,0.0,0.0,0.1,0.0,0.0,0.0,0.1
1474477169937706769,1745,1474477169941041946,sparus2,-0.0245104539319,0.0424434441893,0.70910624703,0.703396134561,0.1,0.0,0.0,0.0,0.1,0.0,0.0,0.0,0.1,0.12117333961,0.0430213136089,0.358169394276,0.1,0.0,0.0,0.0,0.1,0.0,0.0,0.0,0.1,-1.00129444828,2.09882125155,-9.63753717767,0.1,0.0,0.0,0.0,0.1,0.0,0.0,0.0,0.1
1474477170038271813,1746,1474477170042048931,sparus2,-0.0191598069508,0.0522109794331,0.721085165237,0.690610671724,0.1,0.0,0.0,0.0,0.1,0.0,0.0,0.0,0.1,0.193283150924,0.0713357007905,0.349863623063,0.1,0.0,0.0,0.0,0.1,0.0,0.0,0.0,0.1,-0.894314079604,1.25351356346,-9.21463927395,0.1,0.0,0.0,0.0,0.1,0.0,0.0,0.0,0.1
1474477170138925174,1747,1474477170142050027,sparus2,-0.0125203115013,0.065231117944,0.732226493543,0.677814506487,0.1,0.0,0.0,0.0,0.1,0.0,0.0,0.0,0.1,0.26835642479,0.102583285957,0.354326515843,0.1,0.0,0.0,0.0,0.1,0.0,0.0,0.0,0.1,-0.887609263751,1.47323428837,-8.91570271852,0.1,0.0,0.0,0.0,0.1,0.0,0.0,0.0,0.1
1474477170239552558,1748,1474477170240340948,sparus2,-0.00446874455567,0.0811666060225,0.742314204489,0.66510272455,0.1,0.0,0.0,0.0,0.1,0.0,0.0,0.0,0.1,0.33786404311,0.126098329254,0.342979726883,0.1,0.0,0.0,0.0,0.1,0.0,0.0,0.0,0.1,-0.785286778732,1.43262840881,-9.61248482774,0.1,0.0,0.0,0.0,0.1,0.0,0.0,0.0,0.1
1474477170330118189,1749,1474477170337121009,sparus2,0.00494780190823,0.100198328862,0.75230920315,0.65112723565,0.1,0.0,0.0,0.0,0.1,0.0,0.0,0.0,0.1,0.395107888571,0.147168058074,0.358054563883,0.1,0.0,0.0,0.0,0.1,0.0,0.0,0.0,0.1,-0.858647644968,0.252845739076,-9.99387422328,0.1,0.0,0.0,0.0,0.1,0.0,0.0,0.0,0.1
1474477170440891625,1750,1474477170444782018,sparus2,0.0150722883225,0.121321812348,0.761666769618,0.636331341389,0.1,0.0,0.0,0.0,0.1,0.0,0.0,0.0,0.1,0.429019783403,0.163962481426,0.350124368618,0.1,0.0,0.0,0.0,0.1,0.0,0.0,0.0,0.1,-0.772000653618,0.967936038316,-9.52736158027,0.1,0.0,0.0,0.0,0.1,0.0,0.0,0.0,0.1
1474477170531486152,1751,1474477170540410995,sparus2,0.0248976452826,0.142591137702,0.770101105915,0.621282674293,0.1,0.0,0.0,0.0,0.1,0.0,0.0,0.0,0.1,0.444060660994,0.176813257741,0.355952818631,0.1,0.0,0.0,0.0,0.1,0.0,0.0,0.0,0.1,-0.514876882349,-0.567918223149,-9.60626891157,0.1,0.0,0.0,0.0,0.1,0.0,0.0,0.0,0.1
1474477170632163675,1752,1474477170637999057,sparus2,0.0343876089419,0.163561364201,0.777818953134,0.605857118995,0.1,0.0,0.0,0.0,0.1,0.0,0.0,0.0,0.1,0.444965341205,0.181333143944,0.356434655018,0.1,0.0,0.0,0.0,0.1,0.0,0.0,0.0,0.1,-0.458259990825,-0.699595973357,-9.65282098599,0.1,0.0,0.0,0.0,0.1,0.0,0.0,0.0,0.1
1474477170732776922,1753,1474477170741900920,sparus2,0.0444093611482,0.185877773188,0.78551726687,0.588591441942,0.1,0.0,0.0,0.0,0.1,0.0,0.0,0.0,0.1,0.44037220838,0.181212196998,0.361918899808,0.1,0.0,0.0,0.0,0.1,0.0,0.0,0.0,0.1,0.33495758833,-1.25935737842,-9.48463613965,0.1,0.0,0.0,0.0,0.1,0.0,0.0,0.0,0.1
1474477170833418122,1754,1474477170838929891,sparus2,0.0532333265908,0.205110975614,0.79303303875,0.571134222468,0.1,0.0,0.0,0.0,0.1,0.0,0.0,0.0,0.1,0.408022777621,0.176355458355,0.380966001324,0.1,0.0,0.0,0.0,0.1,0.0,0.0,0.0,0.1,-0.393484520496,-1.46675061037,-9.74823834386,0.1,0.0,0.0,0.0,0.1,0.0,0.0,0.0,0.1
1474477170934064356,1755,1474477170936423063,sparus2,0.0605667061206,0.221750181851,0.799946366146,0.554296258555,0.1,0.0,0.0,0.0,0.1,0.0,0.0,0.0,0.1,0.352074023441,0.165946066233,0.363215405423,0.1,0.0,0.0,0.0,0.1,0.0,0.0,0.0,0.1,-0.253272546663,-1.97336494678,-9.41793145326,0.1,0.0,0.0,0.0,0.1,0.0,0.0,0.0,0.1
1474477171034729951,1756,1474477171034320116,sparus2,0.067096689598,0.235609932438,0.80699830289,0.537345078244,0.1,0.0,0.0,0.0,0.1,0.0,0.0,0.0,0.1,0.294984252921,0.145675409572,0.365170845307,0.1,0.0,0.0,0.0,0.1,0.0,0.0,0.0,0.1,0.0107987324473,-2.28931255013,-9.57150351298,0.1,0.0,0.0,0.0,0.1,0.0,0.0,0.0,0.1
1474477171135480099,1757,1474477171136039972,sparus2,0.0732027301235,0.248093848799,0.813954736687,0.520161983535,0.1,0.0,0.0,0.0,0.1,0.0,0.0,0.0,0.1,0.259572377147,0.132638353278,0.355906481642,0.1,0.0,0.0,0.0,0.1,0.0,0.0,0.0,0.1,0.375969046124,-2.27413196867,-9.43210796044,0.1,0.0,0.0,0.0,0.1,0.0,0.0,0.0,0.1
1474477171236674245,1758,1474477171238181114,sparus2,0.0789947438166,0.258411696176,0.820459054705,0.503815606429,0.1,0.0,0.0,0.0,0.1,0.0,0.0,0.0,0.1,0.228650828255,0.112440469012,0.345372216088,0.1,0.0,0.0,0.0,0.1,0.0,0.0,0.0,0.1,-0.20487552376,-2.52674946346,-9.66989829107,0.1,0.0,0.0,0.0,0.1,0.0,0.0,0.0,0.1
1474477171327748052,1759,1474477171329822063,sparus2,0.0838405590902,0.266123478873,0.826372598765,0.489139430688,0.1,0.0,0.0,0.0,0.1,0.0,0.0,0.0,0.1,0.180097823847,0.0924859274303,0.326165780829,0.1,0.0,0.0,0.0,0.1,0.0,0.0,0.0,0.1,-0.0724967038851,-3.01929809017,-9.5515295924,0.1,0.0,0.0,0.0,0.1,0.0,0.0,0.0,0.1
1474477171428477581,1760,1474477171435492038,sparus2,0.0878794105219,0.271407865326,0.832632485275,0.47469792954,0.1,0.0,0.0,0.0,0.1,0.0,0.0,0.0,0.1,0.122291849222,0.0756972400642,0.300608113347,0.1,0.0,0.0,0.0,0.1,0.0,0.0,0.0,0.1,-0.303595046817,-2.80040591042,-9.49186935645,0.1,0.0,0.0,0.0,0.1,0.0,0.0,0.0,0.1
1474477171529061455,1761,1474477171533371925,sparus2,0.0910491371162,0.273627260696,0.838522835802,0.462296042242,0.1,0.0,0.0,0.0,0.1,0.0,0.0,0.0,0.1,0.0710932260597,0.0550717156903,0.279511013781,0.1,0.0,0.0,0.0,0.1,0.0,0.0,0.0,0.1,-0.168486546243,-3.24380502052,-9.27915078599,0.1,0.0,0.0,0.0,0.1,0.0,0.0,0.0,0.1
1474477171629708695,1762,1474477171632354021,sparus2,0.0939118361393,0.273066643794,0.844492051275,0.45105249186,0.1,0.0,0.0,0.0,0.1,0.0,0.0,0.0,0.1,0.0125800973018,0.0231040197648,0.263784195161,0.1,0.0,0.0,0.0,0.1,0.0,0.0,0.0,0.1,-0.167116858737,-3.23558394844,-9.47526361236,0.1,0.0,0.0,0.0,0.1,0.0,0.0,0.0,0.1
1474477171730391670,1763,1474477171736541986,sparus2,0.0960096018199,0.270159328089,0.850767390762,0.44044402666,0.1,0.0,0.0,0.0,0.1,0.0,0.0,0.0,0.1,-0.0310199893985,0.0135026963032,0.246202283625,0.1,0.0,0.0,0.0,0.1,0.0,0.0,0.0,0.1,-0.163641070668,-3.36367980886,-9.29512668698,0.1,0.0,0.0,0.0,0.1,0.0,0.0,0.0,0.1
1474477171831021157,1764,1474477171834709882,sparus2,0.0978639105973,0.265959657699,0.856521719854,0.431345173726,0.1,0.0,0.0,0.0,0.1,0.0,0.0,0.0,0.1,-0.0560940194516,-0.00347796940159,0.225143763696,0.1,0.0,0.0,0.0,0.1,0.0,0.0,0.0,0.1,-0.357198588655,-3.16006361193,-9.32905661914,0.1,0.0,0.0,0.0,0.1,0.0,0.0,0.0,0.1
1474477171921563556,1765,1474477171930303096,sparus2,0.0992661767158,0.261227062508,0.861713034647,0.423505954968,0.1,0.0,0.0,0.0,0.1,0.0,0.0,0.0,0.1,-0.0772772338406,-0.0112000825441,0.201651417022,0.1,0.0,0.0,0.0,0.1,0.0,0.0,0.0,0.1,-0.651735755313,-3.38442253321,-9.71901603953,0.1,0.0,0.0,0.0,0.1,0.0,0.0,0.0,0.1
1474477172032473926,1766,1474477172034054994,sparus2,0.0996779308664,0.253058758926,0.86717507019,0.417172592903,0.1,0.0,0.0,0.0,0.1,0.0,0.0,0.0,0.1,-0.142076479493,-0.0312027413404,0.16890563165,0.1,0.0,0.0,0.0,0.1,0.0,0.0,0.0,0.1,-0.474462298865,-2.4948817996,-9.92528744371,0.1,0.0,0.0,0.0,0.1,0.0,0.0,0.0,0.1
1474477172133116213,1767,1474477172131242990,sparus2,0.10015867715,0.243085710564,0.872311377515,0.412250454661,0.1,0.0,0.0,0.0,0.1,0.0,0.0,0.0,0.1,-0.174709738968,-0.0538997727575,0.151248105838,0.1,0.0,0.0,0.0,0.1,0.0,0.0,0.0,0.1,-0.443550365554,-2.99531043847,-9.42412520495,0.1,0.0,0.0,0.0,0.1,0.0,0.0,0.0,0.1
1474477172223731624,1768,1474477172232351064,sparus2,0.0997708756193,0.231455229715,0.877281449073,0.408474611363,0.1,0.0,0.0,0.0,0.1,0.0,0.0,0.0,0.1,-0.214470764666,-0.0583551834631,0.128327319216,0.1,0.0,0.0,0.0,0.1,0.0,0.0,0.0,0.1,-0.702060216949,-2.87165200389,-9.25535055112,0.1,0.0,0.0,0.0,0.1,0.0,0.0,0.0,0.1
1474477172324364767,1769,1474477172328123092,sparus2,0.0993933264124,0.220622023125,0.881449015633,0.40557924308,0.1,0.0,0.0,0.0,0.1,0.0,0.0,0.0,0.1,-0.20501586322,-0.0617351190032,0.106565731413,0.1,0.0,0.0,0.0,0.1,0.0,0.0,0.0,0.1,-0.485752014998,-2.10236680064,-10.057674588,0.1,0.0,0.0,0.0,0.1,0.0,0.0,0.0,0.1
1474477172424978975,1770,1474477172431364059,sparus2,0.0988526199377,0.208926082412,0.885378491572,0.403339780187,0.1,0.0,0.0,0.0,0.1,0.0,0.0,0.0,0.1,-0.204594758844,-0.0629243558298,0.087358086067,0.1,0.0,0.0,0.0,0.1,0.0,0.0,0.0,0.1,-0.817284890528,-2.1733836049,-9.49051367822,0.1,0.0,0.0,0.0,0.1,0.0,0.0,0.0,0.1
1474477172525606057,1771,1474477172528639078,sparus2,0.0980119013506,0.198423516727,0.888636156846,0.401680913101,0.1,0.0,0.0,0.0,0.1,0.0,0.0,0.0,0.1,-0.201019262299,-0.0563594206644,0.0732513779629,0.1,0.0,0.0,0.0,0.1,0.0,0.0,0.0,0.1,-0.909443257175,-2.17157308989,-9.79017579427,0.1,0.0,0.0,0.0,0.1,0.0,0.0,0.0,0.1
1474477172626285503,1772,1474477172630718946,sparus2,0.0971723899675,0.188582011633,0.891110409863,0.401144099983,0.1,0.0,0.0,0.0,0.1,0.0,0.0,0.0,0.1,-0.180880672845,-0.0534215048207,0.0450315484908,0.1,0.0,0.0,0.0,0.1,0.0,0.0,0.0,0.1,-1.00459518389,-2.12963996057,-9.5326710797,0.1,0.0,0.0,0.0,0.1,0.0,0.0,0.0,0.1
1474477172716896641,1773,1474477172725310087,sparus2,0.0954574569861,0.178839815496,0.893193023804,0.401385620729,0.1,0.0,0.0,0.0,0.1,0.0,0.0,0.0,0.1,-0.187675340364,-0.0426406778449,0.0263567764216,0.1,0.0,0.0,0.0,0.1,0.0,0.0,0.0,0.1,-0.729560177218,-1.51512511952,-9.70679204023,0.1,0.0,0.0,0.0,0.1,0.0,0.0,0.0,0.1
1474477172827687769,1774,1474477172826951980,sparus2,0.0933254171655,0.168750888696,0.894975924988,0.4022829822,0.1,0.0,0.0,0.0,0.1,0.0,0.0,0.0,0.1,-0.189471001237,-0.0385319341113,0.00854836615689,0.1,0.0,0.0,0.0,0.1,0.0,0.0,0.0,0.1,-1.01988380016,-1.25393947931,-9.60873877809,0.1,0.0,0.0,0.0,0.1,0.0,0.0,0.0,0.1
1474477172928403946,1775,1474477172931070089,sparus2,0.0910957832437,0.159740025625,0.896384198057,0.403336152562,0.1,0.0,0.0,0.0,0.1,0.0,0.0,0.0,0.1,-0.171948643789,-0.0302682192376,0.00273379914713,0.1,0.0,0.0,0.0,0.1,0.0,0.0,0.0,0.1,-0.802297518483,-1.11301768694,-9.68322522462,0.1,0.0,0.0,0.0,0.1,0.0,0.0,0.0,0.1
1474477173019001780,1776,1474477173023432016,sparus2,0.0892095924368,0.152710473716,0.897269476477,0.404510378628,0.1,0.0,0.0,0.0,0.1,0.0,0.0,0.0,0.1,-0.139992203961,-0.0229471325827,-0.00537243230823,0.1,0.0,0.0,0.0,0.1,0.0,0.0,0.0,0.1,-0.789116601024,-1.02125696272,-9.85535363719,0.1,0.0,0.0,0.0,0.1,0.0,0.0,0.0,0.1
1474477173119666662,1777,1474477173127073049,sparus2,0.0867629293743,0.145300717749,0.898067031688,0.405999386826,0.1,0.0,0.0,0.0,0.1,0.0,0.0,0.0,0.1,-0.140856712658,-0.0149594908134,-0.0116950619756,0.1,0.0,0.0,0.0,0.1,0.0,0.0,0.0,0.1,-0.874804747747,-1.00147475546,-9.84099979769,0.1,0.0,0.0,0.0,0.1,0.0,0.0,0.0,0.1
1474477173220662502,1778,1474477173225204944,sparus2,0.084264110206,0.138846932134,0.89874733685,0.407276704063,0.1,0.0,0.0,0.0,0.1,0.0,0.0,0.0,0.1,-0.131215058873,-0.00595132223551,-0.0140421645445,0.1,0.0,0.0,0.0,0.1,0.0,0.0,0.0,0.1,-1.14399300706,-0.702828873875,-9.61694593261,0.1,0.0,0.0,0.0,0.1,0.0,0.0,0.0,0.1
1474477173321325264,1779,1474477173323851108,sparus2,0.0814985977134,0.133515178022,0.899137047397,0.408759398433,0.1,0.0,0.0,0.0,0.1,0.0,0.0,0.0,0.1,-0.108544270339,0.00671106660486,-0.0200902487993,0.1,0.0,0.0,0.0,0.1,0.0,0.0,0.0,0.1,-0.988943510372,-0.835155795553,-9.74820361129,0.1,0.0,0.0,0.0,0.1,0.0,0.0,0.0,0.1
1474477173422019556,1780,1474477173423405885,sparus2,0.0784760290262,0.12881522418,0.899574897647,0.409894077063,0.1,0.0,0.0,0.0,0.1,0.0,0.0,0.0,0.1,-0.100088254,0.0170700589826,-0.0164881503294,0.1,0.0,0.0,0.0,0.1,0.0,0.0,0.0,0.1,-0.903003448144,-0.459447701571,-9.66720157739,0.1,0.0,0.0,0.0,0.1,0.0,0.0,0.0,0.1
1474477173512606255,1781,1474477173521951913,sparus2,0.0755350428813,0.123723962021,0.9002686155,0.410491484033,0.1,0.0,0.0,0.0,0.1,0.0,0.0,0.0,0.1,-0.114907691348,0.0116888352753,-0.00312658646767,0.1,0.0,0.0,0.0,0.1,0.0,0.0,0.0,0.1,-0.366589062569,-0.0884123360599,-9.43762511288,0.1,0.0,0.0,0.0,0.1,0.0,0.0,0.0,0.1
1474477173613347405,1782,1474477173620531082,sparus2,0.0724442525829,0.118447139492,0.901349281097,0.410233566252,0.1,0.0,0.0,0.0,0.1,0.0,0.0,0.0,0.1,-0.1180971,0.0160777579327,0.0139311179828,0.1,0.0,0.0,0.0,0.1,0.0,0.0,0.0,0.1,-0.769673772137,0.0650947571802,-9.25542744346,0.1,0.0,0.0,0.0,0.1,0.0,0.0,0.0,0.1
1474477173724073857,1783,1474477173724409103,sparus2,0.0691138284192,0.113621464274,0.902559489889,0.409511671126,0.1,0.0,0.0,0.0,0.1,0.0,0.0,0.0,0.1,-0.103231508835,0.0276746531659,0.0210161965806,0.1,0.0,0.0,0.0,0.1,0.0,0.0,0.0,0.1,-1.15041508089,-0.252801080897,-9.89816146661,0.1,0.0,0.0,0.0,0.1,0.0,0.0,0.0,0.1
1474477173814664198,1784,1474477173818991899,sparus2,0.0667152358818,0.109860447437,0.903763182084,0.408279157072,0.1,0.0,0.0,0.0,0.1,0.0,0.0,0.0,0.1,-0.0823109485618,0.0182285119862,0.032134870427,0.1,0.0,0.0,0.0,0.1,0.0,0.0,0.0,0.1,-0.739269738134,0.249783894772,-9.37991553068,0.1,0.0,0.0,0.0,0.1,0.0,0.0,0.0,0.1
1474477173915315546,1785,1474477173918478012,sparus2,0.0645517250474,0.106963224668,0.9051059361,0.406417504298,0.1,0.0,0.0,0.0,0.1,0.0,0.0,0.0,0.1,-0.0592301992937,0.0263540350181,0.0428092476876,0.1,0.0,0.0,0.0,0.1,0.0,0.0,0.0,0.1,-1.21404556482,0.0952191768321,-9.64706378822,0.1,0.0,0.0,0.0,0.1,0.0,0.0,0.0,0.1
1474477174015912400,1786,1474477174013716936,sparus2,0.0624921882218,0.105075336344,0.906337899871,0.404481781248,0.1,0.0,0.0,0.0,0.1,0.0,0.0,0.0,0.1,-0.0379494944515,0.0316058288773,0.0424521025489,0.1,0.0,0.0,0.0,0.1,0.0,0.0,0.0,0.1,-0.979787164357,0.336934941326,-9.75235914792,0.1,0.0,0.0,0.0,0.1,0.0,0.0,0.0,0.1
1474477174116722661,1787,1474477174119384050,sparus2,0.0610719633559,0.104932030706,0.907520232879,0.402077742657,0.1,0.0,0.0,0.0,0.1,0.0,0.0,0.0,0.1,-0.00889273543078,0.0340857387552,0.0520025931635,0.1,0.0,0.0,0.0,0.1,0.0,0.0,0.0,0.1,-1.06867970208,-0.458665960378,-9.42666520721,0.1,0.0,0.0,0.0,0.1,0.0,0.0,0.0,0.1
1474477174217338640,1788,1474477174219716072,sparus2,0.0598818197533,0.105056368224,0.908855543997,0.399197854835,0.1,0.0,0.0,0.0,0.1,0.0,0.0,0.0,0.1,-0.00122455074814,0.031917383627,0.0584099418924,0.1,0.0,0.0,0.0,0.1,0.0,0.0,0.0,0.1,-1.28416807219,-0.260787060028,-9.98667932745,0.1,0.0,0.0,0.0,0.1,0.0,0.0,0.0,0.1
1474477174307939069,1789,1474477174312299966,sparus2,0.0590144766267,0.105243818757,0.910266145256,0.396051227701,0.1,0.0,0.0,0.0,0.1,0.0,0.0,0.0,0.1,0.0119866522476,0.0311600151788,0.0639643803693,0.1,0.0,0.0,0.0,0.1,0.0,0.0,0.0,0.1,-1.29211231549,0.45566343734,-9.67078825588,0.1,0.0,0.0,0.0,0.1,0.0,0.0,0.0,0.1
1474477174408587353,1790,1474477174409085988,sparus2,0.0582505051131,0.106366599838,0.911713793863,0.392518767925,0.1,0.0,0.0,0.0,0.1,0.0,0.0,0.0,0.1,0.0225125520293,0.0350278995521,0.0739732860021,0.1,0.0,0.0,0.0,0.1,0.0,0.0,0.0,0.1,-1.05587168428,0.165595668971,-9.50303397641,0.1,0.0,0.0,0.0,0.1,0.0,0.0,0.0,0.1
1474477174509200694,1791,1474477174514874935,sparus2,0.0577092288566,0.108196326593,0.913305103259,0.38837737856,0.1,0.0,0.0,0.0,0.1,0.0,0.0,0.0,0.1,0.034959920284,0.0360648931106,0.0798187424721,0.1,0.0,0.0,0.0,0.1,0.0,0.0,0.0,0.1,-1.36182053058,-0.00510269345358,-9.97932795416,0.1,0.0,0.0,0.0,0.1,0.0,0.0,0.0,0.1
1474477174609812570,1792,1474477174609636068,sparus2,0.057474561599,0.110514032823,0.91459879341,0.384697765019,0.1,0.0,0.0,0.0,0.1,0.0,0.0,0.0,0.1,0.0545439163325,0.0368990565438,0.0799907433383,0.1,0.0,0.0,0.0,0.1,0.0,0.0,0.0,0.1,-0.708351923143,-0.396576437054,-9.66383421545,0.1,0.0,0.0,0.0,0.1,0.0,0.0,0.0,0.1
1474477174700326593,1793,1474477174709014892,sparus2,0.0579994586298,0.112718077003,0.916164150047,0.380228810171,0.1,0.0,0.0,0.0,0.1,0.0,0.0,0.0,0.1,0.0574818934744,0.0249815368296,0.0941848588169,0.1,0.0,0.0,0.0,0.1,0.0,0.0,0.0,0.1,-1.19572874933,-0.433121381574,-9.90729237341,0.1,0.0,0.0,0.0,0.1,0.0,0.0,0.0,0.1
1474477174801100448,1794,1474477174810461044,sparus2,0.0586224267585,0.115715924573,0.917672327078,0.375567219013,0.1,0.0,0.0,0.0,0.1,0.0,0.0,0.0,0.1,0.0653372697402,0.0252659248572,0.0940505876833,0.1,0.0,0.0,0.0,0.1,0.0,0.0,0.0,0.1,-0.787820059628,-0.504801632264,-10.1048568656,0.1,0.0,0.0,0.0,0.1,0.0,0.0,0.0,0.1
1474477174901693572,1795,1474477174910490036,sparus2,0.0596556342693,0.118159571546,0.919239801796,0.370779864267,0.1,0.0,0.0,0.0,0.1,0.0,0.0,0.0,0.1,0.067012337015,0.0190695818288,0.100701799692,0.1,0.0,0.0,0.0,0.1,0.0,0.0,0.0,0.1,-1.35523159605,-0.463067147851,-9.59613046407,0.1,0.0,0.0,0.0,0.1,0.0,0.0,0.0,0.1
1474477175002564310,1796,1474477175006580114,sparus2,0.0603829293337,0.119857160805,0.920846305522,0.366101412801,0.1,0.0,0.0,0.0,0.1,0.0,0.0,0.0,0.1,0.0538835753189,0.0159274241937,0.0998450831201,0.1,0.0,0.0,0.0,0.1,0.0,0.0,0.0,0.1,-0.809669832311,0.0954318870227,-9.70323351327,0.1,0.0,0.0,0.0,0.1,0.0,0.0,0.0,0.1
1474477175103195947,1797,1474477175103334903,sparus2,0.061420811731,0.1203527747,0.922540915916,0.361470540942,0.1,0.0,0.0,0.0,0.1,0.0,0.0,0.0,0.1,0.033667436675,0.00113145211362,0.0999547220166,0.1,0.0,0.0,0.0,0.1,0.0,0.0,0.0,0.1,-0.961947892443,0.195982116524,-9.7603402293,0.1,0.0,0.0,0.0,0.1,0.0,0.0,0.0,0.1
1474477175203800176,1798,1474477175206007957,sparus2,0.0630570068503,0.120459097911,0.92443422074,0.356279091643,0.1,0.0,0.0,0.0,0.1,0.0,0.0,0.0,0.1,0.0224537790544,-0.0119536388328,0.108568880211,0.1,0.0,0.0,0.0,0.1,0.0,0.0,0.0,0.1,-1.32238536297,0.198032154162,-9.94668486962,0.1,0.0,0.0,0.0,0.1,0.0,0.0,0.0,0.1
1474477175304344256,1799,1474477175306304931,sparus2,0.0644853587729,0.120021636327,0.926046070024,0.351958977029,0.1,0.0,0.0,0.0,0.1,0.0,0.0,0.0,0.1,0.0104532149417,-0.0157284275908,0.0977881060136,0.1,0.0,0.0,0.0,0.1,0.0,0.0,0.0,0.1,-0.889498704091,-0.157953881487,-9.97207982455,0.1,0.0,0.0,0.0,0.1,0.0,0.0,0.0,0.1
1474477175394944275,1800,1474477175402369022,sparus2,0.065933242163,0.11901247364,0.9276369764,0.347819606567,0.1,0.0,0.0,0.0,0.1,0.0,0.0,0.0,0.1,0.00476585081782,-0.019096575799,0.0975562450222,0.1,0.0,0.0,0.0,0.1,0.0,0.0,0.0,0.1,-0.867760692039,-0.434891826353,-9.71363050284,0.1,0.0,0.0,0.0,0.1,0.0,0.0,0.0,0.1
1474477175495599217,1801,1474477175504218101,sparus2,0.0674590886723,0.118486401069,0.929304126656,0.343225995952,0.1,0.0,0.0,0.0,0.1,0.0,0.0,0.0,0.1,0.0124812747055,-0.0142978847574,0.102098955729,0.1,0.0,0.0,0.0,0.1,0.0,0.0,0.0,0.1,-0.98970987816,-0.77868584063,-9.55188547664,0.1,0.0,0.0,0.0,0.1,0.0,0.0,0.0,0.1
1474477175596533645,1802,1474477175602267980,sparus2,0.0693280870601,0.120020943734,0.93057496263,0.338849270822,0.1,0.0,0.0,0.0,0.1,0.0,0.0,0.0,0.1,0.0566915630837,-0.0080040834094,0.0960431852399,0.1,0.0,0.0,0.0,0.1,0.0,0.0,0.0,0.1,-1.10259833917,-0.507298875239,-9.59214024065,0.1,0.0,0.0,0.0,0.1,0.0,0.0,0.0,0.1
1474477175697153933,1803,1474477175701591014,sparus2,0.0710755990252,0.123514729785,0.931638504167,0.334278429311,0.1,0.0,0.0,0.0,0.1,0.0,0.0,0.0,0.1,0.0949220084322,0.00737027876233,0.09500401348,0.1,0.0,0.0,0.0,0.1,0.0,0.0,0.0,0.1,-1.00896079394,-0.372128832864,-9.88836657367,0.1,0.0,0.0,0.0,0.1,0.0,0.0,0.0,0.1
1474477175797735501,1804,1474477175802282094,sparus2,0.0725759604909,0.128207640792,0.932564639316,0.32957354915,0.1,0.0,0.0,0.0,0.1,0.0,0.0,0.0,0.1,0.117856531062,0.0207195941045,0.0927866679066,0.1,0.0,0.0,0.0,0.1,0.0,0.0,0.0,0.1,-1.12617455929,-0.262990854539,-9.75656134622,0.1,0.0,0.0,0.0,0.1,0.0,0.0,0.0,0.1
1474477175898337157,1805,1474477175902753114,sparus2,0.0738689470835,0.134009727514,0.933557389836,0.324122463694,0.1,0.0,0.0,0.0,0.1,0.0,0.0,0.0,0.1,0.125124631411,0.0303731188575,0.101412957666,0.1,0.0,0.0,0.0,0.1,0.0,0.0,0.0,0.1,-0.694978836909,-0.401229684632,-9.43608435116,0.1,0.0,0.0,0.0,0.1,0.0,0.0,0.0,0.1
1474477175998936931,1806,1474477176000678062,sparus2,0.0749707772805,0.140135458905,0.934368897196,0.3188984159,0.1,0.0,0.0,0.0,0.1,0.0,0.0,0.0,0.1,0.143689642429,0.0385363556467,0.102101108185,0.1,0.0,0.0,0.0,0.1,0.0,0.0,0.0,0.1,-0.761519005965,-0.683606450137,-9.60279812594,0.1,0.0,0.0,0.0,0.1,0.0,0.0,0.0,0.1
1474477176089514662,1807,1474477176098434925,sparus2,0.0761762413479,0.14676434865,0.934967454787,0.313836366134,0.1,0.0,0.0,0.0,0.1,0.0,0.0,0.0,0.1,0.148441099341,0.0376986949302,0.0919603581277,0.1,0.0,0.0,0.0,0.1,0.0,0.0,0.0,0.1,-1.17177066171,-0.225303239885,-9.50610693413,0.1,0.0,0.0,0.0,0.1,0.0,0.0,0.0,0.1
1474477176190309552,1808,1474477176197562932,sparus2,0.0773586362225,0.153805627096,0.935491725927,0.308568794919,0.1,0.0,0.0,0.0,0.1,0.0,0.0,0.0,0.1,0.149156325147,0.0391685417477,0.0953441571977,0.1,0.0,0.0,0.0,0.1,0.0,0.0,0.0,0.1,-0.399886133404,-1.08884644155,-9.48826979483,0.1,0.0,0.0,0.0,0.1,0.0,0.0,0.0,0.1
1474477176290949806,1809,1474477176296838998,sparus2,0.0780352663375,0.159925102197,0.935964852928,0.303816149963,0.1,0.0,0.0,0.0,0.1,0.0,0.0,0.0,0.1,0.136827573605,0.0451141065587,0.0906165941268,0.1,0.0,0.0,0.0,0.1,0.0,0.0,0.0,0.1,-0.743548183799,-1.59906768677,-9.5974243878,0.1,0.0,0.0,0.0,0.1,0.0,0.0,0.0,0.1
1474477176391606380,1810,1474477176395647048,sparus2,0.0786821341117,0.1654560601,0.936485878837,0.299044499508,0.1,0.0,0.0,0.0,0.1,0.0,0.0,0.0,0.1,0.126908535445,0.0424518673448,0.0878784511476,0.1,0.0,0.0,0.0,0.1,0.0,0.0,0.0,0.1,-1.07532678509,-1.323750052,-9.63339393464,0.1,0.0,0.0,0.0,0.1,0.0,0.0,0.0,0.1
1474477176492315068,1811,1474477176491393089,sparus2,0.0792430414889,0.169214783068,0.937020248253,0.295093124168,0.1,0.0,0.0,0.0,0.1,0.0,0.0,0.0,0.1,0.0902944952181,0.0304310909996,0.077780300856,0.1,0.0,0.0,0.0,0.1,0.0,0.0,0.0,0.1,-0.913962999841,-1.78535304544,-9.75769702837,0.1,0.0,0.0,0.0,0.1,0.0,0.0,0.0,0.1
1474477176592958695,1812,1474477176595798969,sparus2,0.0797741359078,0.171674925312,0.937740557107,0.291215478324,0.1,0.0,0.0,0.0,0.1,0.0,0.0,0.0,0.1,0.0571624067521,0.0199817997429,0.0728969752224,0.1,0.0,0.0,0.0,0.1,0.0,0.0,0.0,0.1,-1.01734020606,-1.44720673012,-9.87605883542,0.1,0.0,0.0,0.0,0.1,0.0,0.0,0.0,0.1
1474477176683569374,1813,1474477176692578077,sparus2,0.0799171995925,0.172645311702,0.938475458075,0.288219798327,0.1,0.0,0.0,0.0,0.1,0.0,0.0,0.0,0.1,0.0340932621,0.015812523707,0.0648607658015,0.1,0.0,0.0,0.0,0.1,0.0,0.0,0.0,0.1,-0.365951719822,-1.41175163835,-9.77116193817,0.1,0.0,0.0,0.0,0.1,0.0,0.0,0.0,0.1
1474477176784239518,1814,1474477176791193962,sparus2,0.08042991514,0.17198720352,0.939220930215,0.286034044865,0.1,0.0,0.0,0.0,0.1,0.0,0.0,0.0,0.1,0.00328382054448,-0.0022272173937,0.0515475191741,0.1,0.0,0.0,0.0,0.1,0.0,0.0,0.0,0.1,-0.812474981066,-1.47050744418,-9.73154989593,0.1,0.0,0.0,0.0,0.1,0.0,0.0,0.0,0.1
1474477176895012913,1815,1474477176893446922,sparus2,0.0808214578531,0.169021407772,0.940292150074,0.284166022202,0.1,0.0,0.0,0.0,0.1,0.0,0.0,0.0,0.1,-0.0403378420707,-0.0134302214598,0.046725914575,0.1,0.0,0.0,0.0,0.1,0.0,0.0,0.0,0.1,-0.90619623852,-1.25092602272,-9.69318430119,0.1,0.0,0.0,0.0,0.1,0.0,0.0,0.0,0.1
1474477176985565694,1816,1474477176992611885,sparus2,0.0811144964382,0.165622402791,0.941195883242,0.283090034318,0.1,0.0,0.0,0.0,0.1,0.0,0.0,0.0,0.1,-0.0524041408459,-0.0174385342583,0.034040779687,0.1,0.0,0.0,0.0,0.1,0.0,0.0,0.0,0.1,-0.939563877855,-1.30742449634,-9.78021009612,0.1,0.0,0.0,0.0,0.1,0.0,0.0,0.0,0.1
1474477177086229646,1817,1474477177089258909,sparus2,0.0813791194473,0.161846910858,0.942112325506,0.282147802566,0.1,0.0,0.0,0.0,0.1,0.0,0.0,0.0,0.1,-0.0603371932619,-0.0203510775738,0.0326751635172,0.1,0.0,0.0,0.0,0.1,0.0,0.0,0.0,0.1,-0.860289816462,-1.15939748958,-9.88831842238,0.1,0.0,0.0,0.0,0.1,0.0,0.0,0.0,0.1
1474477177186849751,1818,1474477177192796945,sparus2,0.0813999100105,0.157354821409,0.943106636816,0.28135988773,0.1,0.0,0.0,0.0,0.1,0.0,0.0,0.0,0.1,-0.0717757012387,-0.0188122133759,0.028970237465,0.1,0.0,0.0,0.0,0.1,0.0,0.0,0.0,0.1,-0.909754503782,-1.09055575146,-9.84968585486,0.1,0.0,0.0,0.0,0.1,0.0,0.0,0.0,0.1
1474477177287499652,1819,1474477177289906024,sparus2,0.0819285581764,0.151947310489,0.944147461323,0.28068718793,0.1,0.0,0.0,0.0,0.1,0.0,0.0,0.0,0.1,-0.0916180473412,-0.0351694377275,0.029850284723,0.1,0.0,0.0,0.0,0.1,0.0,0.0,0.0,0.1,-1.18700185319,-0.882722558557,-9.76727314483,0.1,0.0,0.0,0.0,0.1,0.0,0.0,0.0,0.1
1474477177388241136,1820,1474477177387078046,sparus2,0.0824360464246,0.145763140283,0.945245851497,0.280120840731,0.1,0.0,0.0,0.0,0.1,0.0,0.0,0.0,0.1,-0.112919603156,-0.0408791902283,0.0302797780457,0.1,0.0,0.0,0.0,0.1,0.0,0.0,0.0,0.1,-0.922357409595,-1.0291481383,-9.97524845478,0.1,0.0,0.0,0.0,0.1,0.0,0.0,0.0,0.1
1474477177478828980,1821,1474477177485505104,sparus2,0.083056837096,0.138971493552,0.946377102899,0.279569069999,0.1,0.0,0.0,0.0,0.1,0.0,0.0,0.0,0.1,-0.117097128421,-0.0454782269997,0.0316912534364,0.1,0.0,0.0,0.0,0.1,0.0,0.0,0.0,0.1,-1.00112346412,-0.781637442031,-9.78747273351,0.1,0.0,0.0,0.0,0.1,0.0,0.0,0.0,0.1
1474477177589529345,1822,1474477177587673902,sparus2,0.0840918582821,0.132686049793,0.947356857543,0.278994544799,0.1,0.0,0.0,0.0,0.1,0.0,0.0,0.0,0.1,-0.10116781966,-0.0472698596092,0.0282742805944,0.1,0.0,0.0,0.0,0.1,0.0,0.0,0.0,0.1,-1.51909077413,-0.73662107158,-9.85856298257,0.1,0.0,0.0,0.0,0.1,0.0,0.0,0.0,0.1
1474477177680149518,1823,1474477177685950040,sparus2,0.0851338052296,0.128617812346,0.948134882041,0.277938732477,0.1,0.0,0.0,0.0,0.1,0.0,0.0,0.0,0.1,-0.0665520770171,-0.0381060914452,0.0340010821678,0.1,0.0,0.0,0.0,0.1,0.0,0.0,0.0,0.1,-1.38359870023,-0.478382812776,-10.0831166502,0.1,0.0,0.0,0.0,0.1,0.0,0.0,0.0,0.1
1474477177781010077,1824,1474477177786045074,sparus2,0.0855279540153,0.127488828705,0.948710050595,0.276370779096,0.1,0.0,0.0,0.0,0.1,0.0,0.0,0.0,0.1,-0.0109169162547,-0.00873618356059,0.0349631325936,0.1,0.0,0.0,0.0,0.1,0.0,0.0,0.0,0.1,-1.05413223846,-0.0928192713334,-10.2256552556,0.1,0.0,0.0,0.0,0.1,0.0,0.0,0.0,0.1
1474477177881615555,1825,1474477177886162996,sparus2,0.0869861491922,0.127665118413,0.949103718184,0.274476154735,0.1,0.0,0.0,0.0,0.1,0.0,0.0,0.0,0.1,0.0217906503791,-0.0205560439967,0.0369654119328,0.1,0.0,0.0,0.0,0.1,0.0,0.0,0.0,0.1,-1.45938713391,0.416311554548,-8.77130156066,0.1,0.0,0.0,0.0,0.1,0.0,0.0,0.0,0.1
1474477177982741063,1826,1474477177985425949,sparus2,0.0880527606506,0.128176490356,0.949561394037,0.272306183579,0.1,0.0,0.0,0.0,0.1,0.0,0.0,0.0,0.1,0.0232911323621,-0.00756003538475,0.044081725162,0.1,0.0,0.0,0.0,0.1,0.0,0.0,0.0,0.1,-2.59562838619,-0.987065594615,-9.92397098654,0.1,0.0,0.0,0.0,0.1,0.0,0.0,0.0,0.1
1474477178073333288,1827,1474477178082263946,sparus2,0.0890613502218,0.128357683033,0.950113282021,0.269957649326,0.1,0.0,0.0,0.0,0.1,0.0,0.0,0.0,0.1,0.0189723341962,-0.00905416693636,0.0486313088677,0.1,0.0,0.0,0.0,0.1,0.0,0.0,0.0,0.1,-2.33182469151,-0.246309908065,-10.2705146738,0.1,0.0,0.0,0.0,0.1,0.0,0.0,0.0,0.1
1474477178174011143,1828,1474477178180577039,sparus2,0.0902582405018,0.127562946476,0.950912281867,0.267108548912,0.1,0.0,0.0,0.0,0.1,0.0,0.0,0.0,0.1,0.00547224904603,-0.0142991309547,0.0645398280783,0.1,0.0,0.0,0.0,0.1,0.0,0.0,0.0,0.1,-1.75742446976,-0.801707682149,-9.63510445752,0.1,0.0,0.0,0.0,0.1,0.0,0.0,0.0,0.1
1474477178284604925,1829,1474477178283019065,sparus2,0.0912357229173,0.126069599541,0.951873662521,0.26404361294,0.1,0.0,0.0,0.0,0.1,0.0,0.0,0.0,0.1,-0.0141933610165,-0.0148381257195,0.0676406002256,0.1,0.0,0.0,0.0,0.1,0.0,0.0,0.0,0.1,-1.7113986618,-0.807026082411,-9.89330045467,0.1,0.0,0.0,0.0,0.1,0.0,0.0,0.0,0.1
1474477178385199175,1830,1474477178381102085,sparus2,0.0919318027748,0.12373067749,0.952895334888,0.261208238451,0.1,0.0,0.0,0.0,0.1,0.0,0.0,0.0,0.1,-0.026570774205,-0.0138025023402,0.0671942711102,0.1,0.0,0.0,0.0,0.1,0.0,0.0,0.0,0.1,-1.63612226553,-0.49829064635,-9.66359322503,0.1,0.0,0.0,0.0,0.1,0.0,0.0,0.0,0.1
1474477178475796754,1831,1474477178477912902,sparus2,0.0923503418036,0.120966933959,0.95399427856,0.258327953833,0.1,0.0,0.0,0.0,0.1,0.0,0.0,0.0,0.1,-0.0380963338426,-0.0112597627485,0.0728086553819,0.1,0.0,0.0,0.0,0.1,0.0,0.0,0.0,0.1,-1.38401851097,-0.736358445872,-9.73866131837,0.1,0.0,0.0,0.0,0.1,0.0,0.0,0.0,0.1
1474477178576410729,1832,1474477178582254886,sparus2,0.092818471966,0.118014936366,0.955167579533,0.255170729251,0.1,0.0,0.0,0.0,0.1,0.0,0.0,0.0,0.1,-0.038391224797,-0.0116900212657,0.0740244609546,0.1,0.0,0.0,0.0,0.1,0.0,0.0,0.0,0.1,-1.41865119388,-0.655964820048,-9.78606214738,0.1,0.0,0.0,0.0,0.1,0.0,0.0,0.0,0.1
1474477178677084595,1833,1474477178680231094,sparus2,0.0932446863149,0.115662513262,0.956316170845,0.251767735979,0.1,0.0,0.0,0.0,0.1,0.0,0.0,0.0,0.1,-0.0282884610943,-0.00736556419372,0.0806074204467,0.1,0.0,0.0,0.0,0.1,0.0,0.0,0.0,0.1,-1.60130921497,-0.506103985524,-9.70228056543,0.1,0.0,0.0,0.0,0.1,0.0,0.0,0.0,0.1
1474477178777738457,1834,1474477178778374910,sparus2,0.0936586223838,0.114462175675,0.957351932583,0.248201027338,0.1,0.0,0.0,0.0,0.1,0.0,0.0,0.0,0.1,-0.00622516754182,-0.000991293120878,0.0820791367694,0.1,0.0,0.0,0.0,0.1,0.0,0.0,0.0,0.1,-1.54461659972,-0.710314620605,-9.67843294881,0.1,0.0,0.0,0.0,0.1,0.0,0.0,0.0,0.1
1474477178868447471,1835,1474477178875519037,sparus2,0.0937849745837,0.114562178787,0.958228780759,0.244698772899,0.1,0.0,0.0,0.0,0.1,0.0,0.0,0.0,0.1,0.0197133581443,0.00967117226949,0.0761955317155,0.1,0.0,0.0,0.0,0.1,0.0,0.0,0.0,0.1,-1.36131386629,-0.367743416928,-9.63517373818,0.1,0.0,0.0,0.0,0.1,0.0,0.0,0.0,0.1
1474477178969151456,1836,1474477178978255987,sparus2,0.0942588899802,0.11574779724,0.95909657808,0.240523310741,0.1,0.0,0.0,0.0,0.1,0.0,0.0,0.0,0.1,0.0352849258455,0.00914373021248,0.0823394131493,0.1,0.0,0.0,0.0,0.1,0.0,0.0,0.0,0.1,-1.61713248877,-0.695642323409,-9.89142515863,0.1,0.0,0.0,0.0,0.1,0.0,0.0,0.0,0.1
1474477179069800108,1837,1474477179075069904,sparus2,0.094201422927,0.117104642384,0.959933939113,0.236515173275,0.1,0.0,0.0,0.0,0.1,0.0,0.0,0.0,0.1,0.0453346437222,0.0196646713005,0.0810488933769,0.1,0.0,0.0,0.0,0.1,0.0,0.0,0.0,0.1,-1.27688400967,-0.210375050718,-9.70393767451,0.1,0.0,0.0,0.0,0.1,0.0,0.0,0.0,0.1
1474477179170435248,1838,1474477179172759056,sparus2,0.0940277346434,0.119234832511,0.960599098729,0.23279005854,0.1,0.0,0.0,0.0,0.1,0.0,0.0,0.0,0.1,0.0586043197947,0.0251120593438,0.0731817763122,0.1,0.0,0.0,0.0,0.1,0.0,0.0,0.0,0.1,-1.31193840964,-0.444569218246,-9.55613587123,0.1,0.0,0.0,0.0,0.1,0.0,0.0,0.0,0.1
1474477179281095553,1839,1474477179282004117,sparus2,0.0936069141901,0.122169434542,0.961372585689,0.228199751018,0.1,0.0,0.0,0.0,0.1,0.0,0.0,0.0,0.1,0.0633427336099,0.0332189601636,0.0815877248693,0.1,0.0,0.0,0.0,0.1,0.0,0.0,0.0,0.1,-1.3367501894,-0.547289307955,-9.49408004189,0.1,0.0,0.0,0.0,0.1,0.0,0.0,0.0,0.1
1474477179371656149,1840,1474477179372553110,sparus2,0.093127832527,0.12428635509,0.961983408348,0.224650908767,0.1,0.0,0.0,0.0,0.1,0.0,0.0,0.0,0.1,0.0584853149789,0.0339379064904,0.0691712391506,0.1,0.0,0.0,0.0,0.1,0.0,0.0,0.0,0.1,-1.80094776817,-0.529641110662,-9.4937576617,0.1,0.0,0.0,0.0,0.1,0.0,0.0,0.0,0.1
1474477179462227271,1841,1474477179470743894,sparus2,0.0925809377159,0.126240752285,0.962614148046,0.221056654313,0.1,0.0,0.0,0.0,0.1,0.0,0.0,0.0,0.1,0.0536482429434,0.0323511493988,0.0677443368657,0.1,0.0,0.0,0.0,0.1,0.0,0.0,0.0,0.1,-1.58865208087,-0.438342852672,-9.50570919622,0.1,0.0,0.0,0.0,0.1,0.0,0.0,0.0,0.1
1474477179562869680,1842,1474477179569153070,sparus2,0.0913238940715,0.128209675421,0.963193012233,0.217902378796,0.1,0.0,0.0,0.0,0.1,0.0,0.0,0.0,0.1,0.0429656734209,0.0436963567911,0.0592000920591,0.1,0.0,0.0,0.0,0.1,0.0,0.0,0.0,0.1,-1.23983939047,-0.790182995012,-9.39122879138,0.1,0.0,0.0,0.0,0.1,0.0,0.0,0.0,0.1
1474477179663498788,1843,1474477179671710968,sparus2,0.0897160114373,0.129651541116,0.963759049034,0.215197608221,0.1,0.0,0.0,0.0,0.1,0.0,0.0,0.0,0.1,0.0355585586287,0.0464439745909,0.0461656264356,0.1,0.0,0.0,0.0,0.1,0.0,0.0,0.0,0.1,-1.55137410077,-0.493924711306,-9.48957582321,0.1,0.0,0.0,0.0,0.1,0.0,0.0,0.0,0.1
1474477179764213530,1844,1474477179769033908,sparus2,0.0883119672047,0.131339578071,0.964166916042,0.212915639843,0.1,0.0,0.0,0.0,0.1,0.0,0.0,0.0,0.1,0.0400740391523,0.045256131459,0.0421024974994,0.1,0.0,0.0,0.0,0.1,0.0,0.0,0.0,0.1,-1.57874452467,-1.04917387851,-9.53093226135,0.1,0.0,0.0,0.0,0.1,0.0,0.0,0.0,0.1
1474477179864879550,1845,1474477179866776943,sparus2,0.0864519834977,0.132867312198,0.964649767995,0.210530655741,0.1,0.0,0.0,0.0,0.1,0.0,0.0,0.0,0.1,0.0307536586094,0.0520505525636,0.041772616284,0.1,0.0,0.0,0.0,0.1,0.0,0.0,0.0,0.1,-1.49204294181,-0.713582053232,-9.40296059985,0.1,0.0,0.0,0.0,0.1,0.0,0.0,0.0,0.1
1474477179965536372,1846,1474477179970457077,sparus2,0.0842146867994,0.134219899429,0.96516018577,0.208227570051,0.1,0.0,0.0,0.0,0.1,0.0,0.0,0.0,0.1,0.0343922496442,0.0538224786177,0.031410321493,0.1,0.0,0.0,0.0,0.1,0.0,0.0,0.0,0.1,-1.24568381588,0.321680355329,-9.56058558707,0.1,0.0,0.0,0.0,0.1,0.0,0.0,0.0,0.1
1474477180066193649,1847,1474477180065977096,sparus2,0.0820714789808,0.135644307957,0.965521907643,0.206476003252,0.1,0.0,0.0,0.0,0.1,0.0,0.0,0.0,0.1,0.0280650152492,0.054555806276,0.0270218150424,0.1,0.0,0.0,0.0,0.1,0.0,0.0,0.0,0.1,-1.19533889333,-0.263213798144,-9.48306699245,0.1,0.0,0.0,0.0,0.1,0.0,0.0,0.0,0.1
1474477180156757552,1848,1474477180164540052,sparus2,0.0797668776611,0.137565148894,0.965804099532,0.204781630928,0.1,0.0,0.0,0.0,0.1,0.0,0.0,0.0,0.1,0.0355585747376,0.060228821265,0.0254316052505,0.1,0.0,0.0,0.0,0.1,0.0,0.0,0.0,0.1,-1.42422489352,-0.866669652345,-9.33169850599,0.1,0.0,0.0,0.0,0.1,0.0,0.0,0.0,0.1
1474477180267591838,1849,1474477180267105102,sparus2,0.0771301736001,0.139358262734,0.966012411197,0.203593301317,0.1,0.0,0.0,0.0,0.1,0.0,0.0,0.0,0.1,0.0298163393279,0.0617713185329,0.014131160423,0.1,0.0,0.0,0.0,0.1,0.0,0.0,0.0,0.1,-1.32595620822,-0.932348008869,-9.91092652811,0.1,0.0,0.0,0.0,0.1,0.0,0.0,0.0,0.1
1474477180358296115,1850,1474477180365027904,sparus2,0.0746334721188,0.140848394108,0.966153752716,0.202826282393,0.1,0.0,0.0,0.0,0.1,0.0,0.0,0.0,0.1,0.0286311033378,0.0610441570189,0.0102075472158,0.1,0.0,0.0,0.0,0.1,0.0,0.0,0.0,0.1,-1.25109925944,-1.39025542588,-9.74631371747,0.1,0.0,0.0,0.0,0.1,0.0,0.0,0.0,0.1
1474477180458993634,1851,1474477180462377071,sparus2,0.0720177966407,0.142086618093,0.966359592031,0.201925651704,0.1,0.0,0.0,0.0,0.1,0.0,0.0,0.0,0.1,0.0214690903971,0.0606074947609,0.00873165204142,0.1,0.0,0.0,0.0,0.1,0.0,0.0,0.0,0.1,-1.11048886275,-0.356537018816,-10.3058360114,0.1,0.0,0.0,0.0,0.1,0.0,0.0,0.0,0.1
1474477180559681511,1852,1474477180561642885,sparus2,0.069741050315,0.143455924113,0.966398397931,0.201570633314,0.1,0.0,0.0,0.0,0.1,0.0,0.0,0.0,0.1,0.0241543782148,0.0528499619026,-0.000914830125269,0.1,0.0,0.0,0.0,0.1,0.0,0.0,0.0,0.1,-1.1848921405,-0.712916124288,-9.91580726534,0.1,0.0,0.0,0.0,0.1,0.0,0.0,0.0,0.1
1474477180660355919,1853,1474477180663064002,sparus2,0.0676399016263,0.144921682651,0.966387997282,0.201287824554,0.1,0.0,0.0,0.0,0.1,0.0,0.0,0.0,0.1,0.0253454504574,0.0473753325554,-0.00168513745456,0.1,0.0,0.0,0.0,0.1,0.0,0.0,0.0,0.1,-1.15993272592,-0.868486124833,-10.1355691116,0.1,0.0,0.0,0.0,0.1,0.0,0.0,0.0,0.1
1474477180761134809,1854,1474477180763675928,sparus2,0.0656492085233,0.145851820757,0.966359101667,0.201413789071,0.1,0.0,0.0,0.0,0.1,0.0,0.0,0.0,0.1,0.0221543737305,0.0445779248414,-0.00671542517249,0.1,0.0,0.0,0.0,0.1,0.0,0.0,0.0,0.1,-0.818756536785,-0.810360995515,-9.66688663334,0.1,0.0,0.0,0.0,0.1,0.0,0.0,0.0,0.1
1474477180851708944,1855,1474477180859925031,sparus2,0.0640520784648,0.146328739453,0.966413065192,0.201323169758,0.1,0.0,0.0,0.0,0.1,0.0,0.0,0.0,0.1,0.014319464809,0.0364597357345,-0.00121489227017,0.1,0.0,0.0,0.0,0.1,0.0,0.0,0.0,0.1,-1.06965138236,-0.894966201703,-9.85170497471,0.1,0.0,0.0,0.0,0.1,0.0,0.0,0.0,0.1
1474477180962383814,1856,1474477180963637113,sparus2,0.0626081273798,0.146339697298,0.966507298462,0.201317056902,0.1,0.0,0.0,0.0,0.1,0.0,0.0,0.0,0.1,0.00611555530225,0.0300438298942,-0.00201230078626,0.1,0.0,0.0,0.0,0.1,0.0,0.0,0.0,0.1,-0.999157210364,-0.748983816976,-9.88934518884,0.1,0.0,0.0,0.0,0.1,0.0,0.0,0.0,0.1
1474477181052963122,1857,1474477181059973001,sparus2,0.0615221044304,0.146297265424,0.966599710688,0.201239012354,0.1,0.0,0.0,0.0,0.1,0.0,0.0,0.0,0.1,0.00642483819533,0.0242186634111,0.0013807647879,0.1,0.0,0.0,0.0,0.1,0.0,0.0,0.0,0.1,-0.903038087299,-0.846930238731,-9.88807212444,0.1,0.0,0.0,0.0,0.1,0.0,0.0,0.0,0.1
1474477181153605834,1858,1474477181159141063,sparus2,0.0605641748312,0.146064034643,0.966708294185,0.201177415395,0.1,0.0,0.0,0.0,0.1,0.0,0.0,0.0,0.1,-0.00316195583324,0.0195608569811,0.000640638015454,0.1,0.0,0.0,0.0,0.1,0.0,0.0,0.0,0.1,-0.897680428988,-0.966710223514,-9.93542498218,0.1,0.0,0.0,0.0,0.1,0.0,0.0,0.0,0.1
1474477181254259427,1859,1474477181259171962,sparus2,0.0600582043535,0.145290566924,0.966836429071,0.201273402799,0.1,0.0,0.0,0.0,0.1,0.0,0.0,0.0,0.1,-0.00558063013366,0.00911131860888,-0.000169187093536,0.1,0.0,0.0,0.0,0.1,0.0,0.0,0.0,0.1,-0.941589770771,-0.751326914948,-9.9197981683,0.1,0.0,0.0,0.0,0.1,0.0,0.0,0.0,0.1
1474477181354873208,1860,1474477181361686944,sparus2,0.0593049504177,0.144243618701,0.967062854824,0.201161964941,0.1,0.0,0.0,0.0,0.1,0.0,0.0,0.0,0.1,-0.0181303525048,0.0121745063709,0.00367634281041,0.1,0.0,0.0,0.0,0.1,0.0,0.0,0.0,0.1,-0.913191476832,-0.970420253352,-9.91999658497,0.1,0.0,0.0,0.0,0.1,0.0,0.0,0.0,0.1
1474477181455489060,1861,1474477181460936069,sparus2,0.0588782198126,0.142309854592,0.967342779695,0.201318670494,0.1,0.0,0.0,0.0,0.1,0.0,0.0,0.0,0.1,-0.0288913557424,0.00311869404179,0.00114832383582,0.1,0.0,0.0,0.0,0.1,0.0,0.0,0.0,0.1,-0.949185187464,-0.801377065322,-9.71606695086,0.1,0.0,0.0,0.0,0.1,0.0,0.0,0.0,0.1
1474477181556179612,1862,1474477181560667991,sparus2,0.0587424653668,0.140381694759,0.967680706865,0.201087921317,0.1,0.0,0.0,0.0,0.1,0.0,0.0,0.0,0.1,-0.0291863013164,-0.00126080896571,0.0113032647807,0.1,0.0,0.0,0.0,0.1,0.0,0.0,0.0,0.1,-0.912300004201,-0.953900660912,-9.73161849704,0.1,0.0,0.0,0.0,0.1,0.0,0.0,0.0,0.1
1474477181656846176,1863,1474477181659030914,sparus2,0.0586504695571,0.138912578923,0.967999310555,0.200600978571,0.1,0.0,0.0,0.0,0.1,0.0,0.0,0.0,0.1,-0.0181304903774,0.000180059898364,0.0154654851429,0.1,0.0,0.0,0.0,0.1,0.0,0.0,0.0,0.1,-0.832783358385,-0.88634320045,-9.66734517618,0.1,0.0,0.0,0.0,0.1,0.0,0.0,0.0,0.1
1474477181757509208,1864,1474477181758394002,sparus2,0.0584515788793,0.137694984531,0.968239405735,0.200339605029,0.1,0.0,0.0,0.0,0.1,0.0,0.0,0.0,0.1,-0.0190386760812,0.00106826389572,0.0082344993924,0.1,0.0,0.0,0.0,0.1,0.0,0.0,0.0,0.1,-0.848816483776,-0.664541615138,-9.95725356896,0.1,0.0,0.0,0.0,0.1,0.0,0.0,0.0,0.1
1474477181848077629,1865,1474477181857144117,sparus2,0.0583755619027,0.136039012338,0.968555917991,0.199962783085,0.1,0.0,0.0,0.0,0.1,0.0,0.0,0.0,0.1,-0.0218107157905,-0.00126382957109,0.0124486909895,0.1,0.0,0.0,0.0,0.1,0.0,0.0,0.0,0.1,-0.952485455042,-0.584347232031,-9.7390042834,0.1,0.0,0.0,0.0,0.1,0.0,0.0,0.0,0.1
1474477181948715851,1866,1474477181952070951,sparus2,0.0588415374564,0.134645994657,0.968773992465,0.199712496146,0.1,0.0,0.0,0.0,0.1,0.0,0.0,0.0,0.1,-0.0160648268459,-0.0110417274458,0.0136058764783,0.1,0.0,0.0,0.0,0.1,0.0,0.0,0.0,0.1,-0.88660731791,-0.988143773307,-9.80976657473,0.1,0.0,0.0,0.0,0.1,0.0,0.0,0.0,0.1
1474477182049382727,1867,1474477182054289102,sparus2,0.0590285303285,0.133329915484,0.969050855701,0.199196398835,0.1,0.0,0.0,0.0,0.1,0.0,0.0,0.0,0.1,-0.0142543617967,-0.00478138617559,0.0176430965731,0.1,0.0,0.0,0.0,0.1,0.0,0.0,0.0,0.1,-0.75492836562,-0.892059698015,-9.89363720762,0.1,0.0,0.0,0.0,0.1,0.0,0.0,0.0,0.1
1474477182150014733,1868,1474477182153934955,sparus2,0.0594685190716,0.132147822912,0.969277545339,0.198749813183,0.1,0.0,0.0,0.0,0.1,0.0,0.0,0.0,0.1,-0.0123374311602,-0.00939881267286,0.017953081988,0.1,0.0,0.0,0.0,0.1,0.0,0.0,0.0,0.1,-0.779541223136,-1.05093528549,-9.52573816417,0.1,0.0,0.0,0.0,0.1,0.0,0.0,0.0,0.1
1474477182250802016,1869,1474477182251148939,sparus2,0.0600503899082,0.130839929457,0.96954071949,0.198155637776,0.1,0.0,0.0,0.0,0.1,0.0,0.0,0.0,0.1,-0.0117668993868,-0.0118784638469,0.0161820766269,0.1,0.0,0.0,0.0,0.1,0.0,0.0,0.0,0.1,-1.14908782053,-0.542743013279,-9.679316616,0.1,0.0,0.0,0.0,0.1,0.0,0.0,0.0,0.1
1474477182351424837,1870,1474477182352986097,sparus2,0.0603809874573,0.129352156672,0.969888367606,0.197328939336,0.1,0.0,0.0,0.0,0.1,0.0,0.0,0.0,0.1,-0.0219247615854,-0.00818905870244,0.020719196448,0.1,0.0,0.0,0.0,0.1,0.0,0.0,0.0,0.1,-1.00062288201,-0.805447426292,-9.48152686526,0.1,0.0,0.0,0.0,0.1,0.0,0.0,0.0,0.1
1474477182442020532,1871,1474477182448760986,sparus2,0.0605492311178,0.127975989242,0.970247748527,0.19640581271,0.1,0.0,0.0,0.0,0.1,0.0,0.0,0.0,0.1,-0.020372074864,-0.0052215705385,0.0219382890654,0.1,0.0,0.0,0.0,0.1,0.0,0.0,0.0,0.1,-0.96009180107,-0.279212956972,-9.33019365144,0.1,0.0,0.0,0.0,0.1,0.0,0.0,0.0,0.1
1474477182542688834,1872,1474477182547342061,sparus2,0.0606265962816,0.126914736171,0.970529852888,0.195675420578,0.1,0.0,0.0,0.0,0.1,0.0,0.0,0.0,0.1,-0.0152226252235,-0.00313282884713,0.0193108467943,0.1,0.0,0.0,0.0,0.1,0.0,0.0,0.0,0.1,-0.582513327965,-0.66472739038,-9.48212306485,0.1,0.0,0.0,0.0,0.1,0.0,0.0,0.0,0.1
1474477182643335271,1873,1474477182645878076,sparus2,0.0609657994235,0.125388384925,0.970843678566,0.194996092309,0.1,0.0,0.0,0.0,0.1,0.0,0.0,0.0,0.1,-0.0174828163678,-0.00756461273777,0.0178425843676,0.1,0.0,0.0,0.0,0.1,0.0,0.0,0.0,0.1,-1.23396212466,-0.490520488957,-9.69623707911,0.1,0.0,0.0,0.0,0.1,0.0,0.0,0.0,0.1
1474477182743995965,1874,1474477182747020959,sparus2,0.0606291294273,0.124489649457,0.971225058593,0.193773892473,0.1,0.0,0.0,0.0,0.1,0.0,0.0,0.0,0.1,-0.0111494734626,0.00673197996469,0.0238452980382,0.1,0.0,0.0,0.0,0.1,0.0,0.0,0.0,0.1,-0.887193009987,0.0286629014922,-9.42223026918,0.1,0.0,0.0,0.0,0.1,0.0,0.0,0.0,0.1
1474477182844641610,1875,1474477182844541072,sparus2,0.060072085515,0.1236791092,0.971495629924,0.193108942121,0.1,0.0,0.0,0.0,0.1,0.0,0.0,0.0,0.1,-0.0139670436042,0.0112432849099,0.0167507087735,0.1,0.0,0.0,0.0,0.1,0.0,0.0,0.0,0.1,-0.856922848183,-1.03716362206,-9.44064928477,0.1,0.0,0.0,0.0,0.1,0.0,0.0,0.0,0.1
1474477182935224405,1876,1474477182943965911,sparus2,0.059879615001,0.123205259459,0.971745704532,0.192211293824,0.1,0.0,0.0,0.0,0.1,0.0,0.0,0.0,0.1,-4.18546191365e-05,0.00994441986324,0.0198271981866,0.1,0.0,0.0,0.0,0.1,0.0,0.0,0.0,0.1,-1.6234542021,-0.785713938932,-9.67210127034,0.1,0.0,0.0,0.0,0.1,0.0,0.0,0.0,0.1
1474477183045979822,1877,1474477183050683021,sparus2,0.0592780208465,0.122666831067,0.972032012974,0.191292264752,0.1,0.0,0.0,0.0,0.1,0.0,0.0,0.0,0.1,-0.00109793150588,0.0155332388699,0.0161962629868,0.1,0.0,0.0,0.0,0.1,0.0,0.0,0.0,0.1,-1.50367503913,-0.402064365726,-9.79452929306,0.1,0.0,0.0,0.0,0.1,0.0,0.0,0.0,0.1
1474477183136554325,1878,1474477183142631053,sparus2,0.0582209441434,0.122225544181,0.972349045247,0.190285501863,0.1,0.0,0.0,0.0,0.1,0.0,0.0,0.0,0.1,-0.0013508188836,0.0261811849802,0.0204181219702,0.1,0.0,0.0,0.0,0.1,0.0,0.0,0.0,0.1,-1.22407348628,-0.463948510403,-9.70384177697,0.1,0.0,0.0,0.0,0.1,0.0,0.0,0.0,0.1
1474477183237246120,1879,1474477183243648052,sparus2,0.0568552808169,0.121886294594,0.972772985575,0.188743017804,0.1,0.0,0.0,0.0,0.1,0.0,0.0,0.0,0.1,0.00241103463527,0.0345856769946,0.0243241436313,0.1,0.0,0.0,0.0,0.1,0.0,0.0,0.0,0.1,-1.70628137353,0.0980320725794,-9.6864759197,0.1,0.0,0.0,0.0,0.1,0.0,0.0,0.0,0.1
1474477183337844952,1880,1474477183345524072,sparus2,0.0552472402356,0.122283529901,0.972961397725,0.187990955364,0.1,0.0,0.0,0.0,0.1,0.0,0.0,0.0,0.1,0.00694829050837,0.0357900260326,0.0117241565806,0.1,0.0,0.0,0.0,0.1,0.0,0.0,0.0,0.1,-1.17389769398,-0.588850942733,-9.46800808714,0.1,0.0,0.0,0.0,0.1,0.0,0.0,0.0,0.1
1474477183448715824,1881,1474477183449784994,sparus2,0.0533188326146,0.12299495716,0.973187916974,0.186908054553,0.1,0.0,0.0,0.0,0.1,0.0,0.0,0.0,0.1,0.0180701213449,0.0463283917908,0.0201989544831,0.1,0.0,0.0,0.0,0.1,0.0,0.0,0.0,0.1,-0.911101353259,-0.542300027939,-9.91866892771,0.1,0.0,0.0,0.0,0.1,0.0,0.0,0.0,0.1
1474477183539300986,1882,1474477183540868043,sparus2,0.0514711359558,0.124180197213,0.973340693661,0.185843737713,0.1,0.0,0.0,0.0,0.1,0.0,0.0,0.0,0.1,0.0289882037511,0.048636122852,0.0176056694552,0.1,0.0,0.0,0.0,0.1,0.0,0.0,0.0,0.1,-1.13561199669,-0.458895249589,-9.75730731167,0.1,0.0,0.0,0.0,0.1,0.0,0.0,0.0,0.1
1474477183639977352,1883,1474477183642326116,sparus2,0.049614560487,0.125587947158,0.973508259271,0.18452027544,0.1,0.0,0.0,0.0,0.1,0.0,0.0,0.0,0.1,0.0326519348613,0.0479794093618,0.0223463160653,0.1,0.0,0.0,0.0,0.1,0.0,0.0,0.0,0.1,-0.943779383051,-0.453157564876,-9.73061938705,0.1,0.0,0.0,0.0,0.1,0.0,0.0,0.0,0.1
1474477183740593065,1884,1474477183742628097,sparus2,0.0475940348717,0.127852246718,0.973617389027,0.182914708642,0.1,0.0,0.0,0.0,0.1,0.0,0.0,0.0,0.1,0.0425049871392,0.0532398268512,0.0244923169324,0.1,0.0,0.0,0.0,0.1,0.0,0.0,0.0,0.1,-1.21790389169,-0.607900338384,-9.93172163684,0.1,0.0,0.0,0.0,0.1,0.0,0.0,0.0,0.1
1474477183851296333,1885,1474477183848762989,sparus2,0.045505745034,0.131217538476,0.973579802686,0.181255489755,0.1,0.0,0.0,0.0,0.1,0.0,0.0,0.0,0.1,0.0732751374124,0.0620061544264,0.0250640545292,0.1,0.0,0.0,0.0,0.1,0.0,0.0,0.0,0.1,-0.986416927783,-0.334407881714,-9.84865260183,0.1,0.0,0.0,0.0,0.1,0.0,0.0,0.0,0.1
1474477183931911164,1886,1474477183937815904,sparus2,0.0437022490109,0.135254338327,0.973431330918,0.179521088963,0.1,0.0,0.0,0.0,0.1,0.0,0.0,0.0,0.1,0.0816108541718,0.0573410536266,0.0258616962587,0.1,0.0,0.0,0.0,0.1,0.0,0.0,0.0,0.1,-0.970667108149,-0.524391718679,-9.99020475095,0.1,0.0,0.0,0.0,0.1,0.0,0.0,0.0,0.1
1474477184032894418,1887,1474477184038352012,sparus2,0.0420741379888,0.138877353178,0.973312690501,0.177778666314,0.1,0.0,0.0,0.0,0.1,0.0,0.0,0.0,0.1,0.0748913824433,0.0527709945776,0.0283386110135,0.1,0.0,0.0,0.0,0.1,0.0,0.0,0.0,0.1,-0.965985351938,-0.902194738335,-9.6774137985,0.1,0.0,0.0,0.0,0.1,0.0,0.0,0.0,0.1
1474477184133533124,1888,1474477184137175083,sparus2,0.0407846507803,0.141315770174,0.973310056607,0.176164693023,0.1,0.0,0.0,0.0,0.1,0.0,0.0,0.0,0.1,0.0495853189149,0.0400163314356,0.0275337376861,0.1,0.0,0.0,0.0,0.1,0.0,0.0,0.0,0.1,-0.692243945823,-0.877101074223,-9.99457199243,0.1,0.0,0.0,0.0,0.1,0.0,0.0,0.0,0.1
1474477184234188250,1889,1474477184235853910,sparus2,0.0398355813413,0.142243710408,0.973513140363,0.17450506826,0.1,0.0,0.0,0.0,0.1,0.0,0.0,0.0,0.1,0.028118921078,0.0313686602821,0.0315908351301,0.1,0.0,0.0,0.0,0.1,0.0,0.0,0.0,0.1,-0.913581696063,-0.631660616804,-9.93467221513,0.1,0.0,0.0,0.0,0.1,0.0,0.0,0.0,0.1
1474477184324773803,1890,1474477184333205938,sparus2,0.0391421088107,0.142466838142,0.973790431732,0.172925678878,0.1,0.0,0.0,0.0,0.1,0.0,0.0,0.0,0.1,0.00765915438696,0.0214315525964,0.0320412458703,0.1,0.0,0.0,0.0,0.1,0.0,0.0,0.0,0.1,-0.795411300458,-0.950294682106,-10.0121699999,0.1,0.0,0.0,0.0,0.1,0.0,0.0,0.0,0.1
1474477184435487832,1891,1474477184435436964,sparus2,0.0386766091488,0.141171698722,0.974304793272,0.171186568374,0.1,0.0,0.0,0.0,0.1,0.0,0.0,0.0,0.1,-0.0164125201644,0.0136371606244,0.0372485307001,0.1,0.0,0.0,0.0,0.1,0.0,0.0,0.0,0.1,-0.858862088043,-0.908783350975,-9.71491708044,0.1,0.0,0.0,0.0,0.1,0.0,0.0,0.0,0.1
1474477184526139706,1892,1474477184532567977,sparus2,0.0384981450177,0.1393549835,0.974828490321,0.169727710944,0.1,0.0,0.0,0.0,0.1,0.0,0.0,0.0,0.1,-0.0278934971681,0.00520568033077,0.0365110683284,0.1,0.0,0.0,0.0,0.1,0.0,0.0,0.0,0.1,-0.639182178223,-1.11427344591,-9.76687681101,0.1,0.0,0.0,0.0,0.1,0.0,0.0,0.0,0.1
1474477184626758290,1893,1474477184630332946,sparus2,0.0385726074518,0.13695983659,0.975478186899,0.167918027623,0.1,0.0,0.0,0.0,0.1,0.0,0.0,0.0,0.1,-0.0373738660974,-0.000520332545657,0.0430232182347,0.1,0.0,0.0,0.0,0.1,0.0,0.0,0.0,0.1,-0.832980374316,-0.773575542431,-9.82393569078,0.1,0.0,0.0,0.0,0.1,0.0,0.0,0.0,0.1
1474477184727396936,1894,1474477184733148097,sparus2,0.0384664415857,0.135127494916,0.97602303505,0.166252603109,0.1,0.0,0.0,0.0,0.1,0.0,0.0,0.0,0.1,-0.0242129887252,0.00390937574877,0.0352150744108,0.1,0.0,0.0,0.0,0.1,0.0,0.0,0.0,0.1,-0.840243304626,-0.517021962652,-9.69773667117,0.1,0.0,0.0,0.0,0.1,0.0,0.0,0.0,0.1
1474477184828035755,1895,1474477184830935955,sparus2,0.0383990210189,0.133280422069,0.976539865094,0.164717139847,0.1,0.0,0.0,0.0,0.1,0.0,0.0,0.0,0.1,-0.0325750841242,0.00149486209791,0.0354609345009,0.1,0.0,0.0,0.0,0.1,0.0,0.0,0.0,0.1,-0.822299025555,-1.02152883591,-10.2717553638,0.1,0.0,0.0,0.0,0.1,0.0,0.0,0.0,0.1
1474477184918626479,1896,1474477184928435087,sparus2,0.0383319188874,0.130822243746,0.977053146499,0.163656205052,0.1,0.0,0.0,0.0,0.1,0.0,0.0,0.0,0.1,-0.0380323926658,-0.00213159993421,0.0261965391494,0.1,0.0,0.0,0.0,0.1,0.0,0.0,0.0,0.1,-0.519287805225,-0.432027906638,-9.8413223579,0.1,0.0,0.0,0.0,0.1,0.0,0.0,0.0,0.1
1474477185019431688,1897,1474477185026551961,sparus2,0.0382478124066,0.128541793673,0.977612574245,0.162135026455,0.1,0.0,0.0,0.0,0.1,0.0,0.0,0.0,0.1,-0.035967575266,0.0024236207226,0.035919842113,0.1,0.0,0.0,0.0,0.1,0.0,0.0,0.0,0.1,-0.921650480474,-0.689765933041,-9.58973784566,0.1,0.0,0.0,0.0,0.1,0.0,0.0,0.0,0.1
1474477185120138825,1898,1474477185128767967,sparus2,0.0376778479257,0.126337924157,0.97807967762,0.16118080817,0.1,0.0,0.0,0.0,0.1,0.0,0.0,0.0,0.1,-0.0342161370415,0.00940700963199,0.0226586565514,0.1,0.0,0.0,0.0,0.1,0.0,0.0,0.0,0.1,-0.709860222438,-0.558304004571,-9.66434748617,0.1,0.0,0.0,0.0,0.1,0.0,0.0,0.0,0.1
1474477185230821588,1899,1474477185235198020,sparus2,0.0371001875929,0.124198521205,0.978582040749,0.159923397083,0.1,0.0,0.0,0.0,0.1,0.0,0.0,0.0,0.1,-0.0392357471473,0.00902485721528,0.028742383981,0.1,0.0,0.0,0.0,0.1,0.0,0.0,0.0,0.1,-0.513712870563,-0.543800127336,-10.0141898893,0.1,0.0,0.0,0.0,0.1,0.0,0.0,0.0,0.1
1474477185321434019,1900,1474477185325155019,sparus2,0.0364135460077,0.122063796293,0.979079258199,0.158676682177,0.1,0.0,0.0,0.0,0.1,0.0,0.0,0.0,0.1,-0.0355372708943,0.0137222576046,0.0305858121535,0.1,0.0,0.0,0.0,0.1,0.0,0.0,0.0,0.1,-0.751232723591,-0.576446420847,-9.82200566686,0.1,0.0,0.0,0.0,0.1,0.0,0.0,0.0,0.1
1474477185422137762,1901,1474477185426990032,sparus2,0.0354854896559,0.12013530107,0.979560990353,0.15738028987,0.1,0.0,0.0,0.0,0.1,0.0,0.0,0.0,0.1,-0.0300551478559,0.0185862763018,0.0286214994854,0.1,0.0,0.0,0.0,0.1,0.0,0.0,0.0,0.1,-0.825283254536,-0.50544637406,-9.79161430689,0.1,0.0,0.0,0.0,0.1,0.0,0.0,0.0,0.1
1474477185522790813,1902,1474477185524472951,sparus2,0.0346502822858,0.119020301707,0.979839283425,0.156679623362,0.1,0.0,0.0,0.0,0.1,0.0,0.0,0.0,0.1,-0.0153782774939,0.0182108251144,0.0181306121275,0.1,0.0,0.0,0.0,0.1,0.0,0.0,0.0,0.1,-0.672614303879,-0.565667026861,-9.85207537118,0.1,0.0,0.0,0.0,0.1,0.0,0.0,0.0,0.1
1474477185623545108,1903,1474477185622925043,sparus2,0.0337489640245,0.118967487527,0.980042392441,0.155642710585,0.1,0.0,0.0,0.0,0.1,0.0,0.0,0.0,0.1,0.00674662975322,0.0241570272295,0.0217967160388,0.1,0.0,0.0,0.0,0.1,0.0,0.0,0.0,0.1,-0.860428120187,-0.425147551791,-9.80763817915,0.1,0.0,0.0,0.0,0.1,0.0,0.0,0.0,0.1
1474477185724185812,1904,1474477185724479913,sparus2,0.0324229594453,0.12057147492,0.98003629026,0.154726018855,0.1,0.0,0.0,0.0,0.1,0.0,0.0,0.0,0.1,0.0325173821943,0.0340249249261,0.0150500778166,0.1,0.0,0.0,0.0,0.1,0.0,0.0,0.0,0.1,-0.60950311938,-0.445373342202,-9.56821127927,0.1,0.0,0.0,0.0,0.1,0.0,0.0,0.0,0.1
1474477185814713982,1905,1474477185823365926,sparus2,0.0311591187377,0.123468030545,0.979814514881,0.154104740941,0.1,0.0,0.0,0.0,0.1,0.0,0.0,0.0,0.1,0.0656105395646,0.0377485121438,0.0100218777163,0.1,0.0,0.0,0.0,0.1,0.0,0.0,0.0,0.1,-0.4318506811,-0.427164252933,-9.83203397908,0.1,0.0,0.0,0.0,0.1,0.0,0.0,0.0,0.1
1474477185915343409,1906,1474477185921996116,sparus2,0.0298888451833,0.1270779199,0.979514556728,0.153326750324,0.1,0.0,0.0,0.0,0.1,0.0,0.0,0.0,0.1,0.0756057917844,0.0397372445504,0.00939474885258,0.1,0.0,0.0,0.0,0.1,0.0,0.0,0.0,0.1,-0.540710449975,-0.235126546463,-9.46444987969,0.1,0.0,0.0,0.0,0.1,0.0,0.0,0.0,0.1
1474477186015922775,1907,1474477186019452095,sparus2,0.0288788621426,0.129486745436,0.979288129646,0.152950819589,0.1,0.0,0.0,0.0,0.1,0.0,0.0,0.0,0.1,0.0558407399167,0.0349031032165,0.00276981243658,0.1,0.0,0.0,0.0,0.1,0.0,0.0,0.0,0.1,-1.26790968196,-0.756799460213,-9.63482456107,0.1,0.0,0.0,0.0,0.1,0.0,0.0,0.0,0.1
1474477186126638401,1908,1474477186127600908,sparus2,0.02808542756,0.130430440423,0.97927127856,0.152403648112,0.1,0.0,0.0,0.0,0.1,0.0,0.0,0.0,0.1,0.02407491964,0.0202806878807,0.00941223580972,0.1,0.0,0.0,0.0,0.1,0.0,0.0,0.0,0.1,-0.47956030884,-0.672507393057,-9.7315508455,0.1,0.0,0.0,0.0,0.1,0.0,0.0,0.0,0.1
1474477186217196390,1909,1474477186220304965,sparus2,0.0276031755787,0.129563187986,0.979395815308,0.15243123687,0.1,0.0,0.0,0.0,0.1,0.0,0.0,0.0,0.1,-0.00977615631917,0.0108057953726,0.000690900464831,0.1,0.0,0.0,0.0,0.1,0.0,0.0,0.0,0.1,-0.626396327151,-0.667399398922,-9.71039309147,0.1,0.0,0.0,0.0,0.1,0.0,0.0,0.0,0.1
1474477186317810374,1910,1474477186318315982,sparus2,0.0269284592967,0.127703547678,0.979666103546,0.152384341561,0.1,0.0,0.0,0.0,0.1,0.0,0.0,0.0,0.1,-0.0349186215398,0.0101693060977,0.00182415706841,0.1,0.0,0.0,0.0,0.1,0.0,0.0,0.0,0.1,-0.93524465569,-0.806344770059,-9.99047843532,0.1,0.0,0.0,0.0,0.1,0.0,0.0,0.0,0.1
1474477186418372019,1911,1474477186418849945,sparus2,0.0263333032376,0.124582396116,0.980036651946,0.152689045318,0.1,0.0,0.0,0.0,0.1,0.0,0.0,0.0,0.1,-0.0536855829681,0.00262545321693,-0.00123396311727,0.1,0.0,0.0,0.0,0.1,0.0,0.0,0.0,0.1,-0.169044445568,-0.606219756843,-9.94598107289,0.1,0.0,0.0,0.0,0.1,0.0,0.0,0.0,0.1
1474477186519009165,1912,1474477186521717071,sparus2,0.0256187481002,0.120975893236,0.980463456393,0.152970335944,0.1,0.0,0.0,0.0,0.1,0.0,0.0,0.0,0.1,-0.0649413182604,0.00481385012349,-0.000409782016801,0.1,0.0,0.0,0.0,0.1,0.0,0.0,0.0,0.1,-0.385565640441,-0.698300144157,-9.67516964509,0.1,0.0,0.0,0.0,0.1,0.0,0.0,0.0,0.1
1474477186609539620,1913,1474477186614284992,sparus2,0.0249761701104,0.117887791804,0.980809214433,0.153270820293,0.1,0.0,0.0,0.0,0.1,0.0,0.0,0.0,0.1,-0.0563076021013,0.00588744213463,-0.00418302471483,0.1,0.0,0.0,0.0,0.1,0.0,0.0,0.0,0.1,-0.639832664684,-0.380118311672,-9.65481961101,0.1,0.0,0.0,0.0,0.1,0.0,0.0,0.0,0.1
1474477186710333967,1914,1474477186715728044,sparus2,0.0245816012491,0.115180450257,0.981047438217,0.15386725684,0.1,0.0,0.0,0.0,0.1,0.0,0.0,0.0,0.1,-0.0467268745828,0.00248982806354,-0.00838514084356,0.1,0.0,0.0,0.0,0.1,0.0,0.0,0.0,0.1,-0.827935305199,-0.570516615285,-9.66631178814,0.1,0.0,0.0,0.0,0.1,0.0,0.0,0.0,0.1
1474477186810997856,1915,1474477186814116954,sparus2,0.023781690767,0.112422435209,0.98133447981,0.154202029759,0.1,0.0,0.0,0.0,0.1,0.0,0.0,0.0,0.1,-0.0474696722345,0.00961869433275,-0.0036596074072,0.1,0.0,0.0,0.0,0.1,0.0,0.0,0.0,0.1,-0.603400588721,-0.41992165102,-9.81127319341,0.1,0.0,0.0,0.0,0.1,0.0,0.0,0.0,0.1
1474477186911578421,1916,1474477186917150020,sparus2,0.0230435805537,0.110766681107,0.981398353069,0.15510321836,0.1,0.0,0.0,0.0,0.1,0.0,0.0,0.0,0.1,-0.0251028195195,0.0112909826436,-0.0177855797784,0.1,0.0,0.0,0.0,0.1,0.0,0.0,0.0,0.1,-0.826148747801,-0.231354063631,-9.81433948453,0.1,0.0,0.0,0.0,0.1,0.0,0.0,0.0,0.1
1474477187002506566,1917,1474477187009031057,sparus2,0.0222406441214,0.110073005331,0.981363454362,0.15593286276,0.1,0.0,0.0,0.0,0.1,0.0,0.0,0.0,0.1,-0.00953847279615,0.0161354366296,-0.0135882459039,0.1,0.0,0.0,0.0,0.1,0.0,0.0,0.0,0.1,-0.574589908816,-0.800387043611,-9.92964846865,0.1,0.0,0.0,0.0,0.1,0.0,0.0,0.0,0.1
1474477187113213889,1918,1474477187114408016,sparus2,0.0215423215963,0.110264947192,0.98125540514,0.156573943186,0.1,0.0,0.0,0.0,0.1,0.0,0.0,0.0,0.1,0.0109699699453,0.0156899483512,-0.0124310585456,0.1,0.0,0.0,0.0,0.1,0.0,0.0,0.0,0.1,-0.654177794427,-0.303098085442,-9.89805949201,0.1,0.0,0.0,0.0,0.1,0.0,0.0,0.0,0.1
1474477187203814904,1919,1474477187213334083,sparus2,0.0211236797076,0.111025900559,0.981065849361,0.157279492554,0.1,0.0,0.0,0.0,0.1,0.0,0.0,0.0,0.1,0.0248720764795,0.0101621004673,-0.012845816553,0.1,0.0,0.0,0.0,0.1,0.0,0.0,0.0,0.1,-0.093375252452,-0.200542583827,-9.68458892406,0.1,0.0,0.0,0.0,0.1,0.0,0.0,0.0,0.1
1474477187314536756,1920,1474477187313313961,sparus2,0.0212056860876,0.111767697288,0.980872654451,0.157946625384,0.1,0.0,0.0,0.0,0.1,0.0,0.0,0.0,0.1,0.0247757288269,0.00089736972559,-0.0103109647896,0.1,0.0,0.0,0.0,0.1,0.0,0.0,0.0,0.1,-0.233792338278,-0.37959748993,-9.81296444553,0.1,0.0,0.0,0.0,0.1,0.0,0.0,0.0,0.1
1474477187405156994,1921,1474477187408070087,sparus2,0.0211474806052,0.112683910579,0.980715595264,0.158278367336,0.1,0.0,0.0,0.0,0.1,0.0,0.0,0.0,0.1,0.0310392522689,0.00651162419111,-0.00937141275454,0.1,0.0,0.0,0.0,0.1,0.0,0.0,0.0,0.1,-0.709533818235,0.0871304647959,-9.78008803174,0.1,0.0,0.0,0.0,0.1,0.0,0.0,0.0,0.1
1474477187505843141,1922,1474477187509799957,sparus2,0.0216560863316,0.114780603804,0.980399421588,0.158661277774,0.1,0.0,0.0,0.0,0.1,0.0,0.0,0.0,0.1,0.0485472195524,-0.00261129160277,-0.00965090883641,0.1,0.0,0.0,0.0,0.1,0.0,0.0,0.0,0.1,-0.870955644395,0.306340391709,-10.0252991063,0.1,0.0,0.0,0.0,0.1,0.0,0.0,0.0,0.1
1474477187606456474,1923,1474477187606720924,sparus2,0.0222058532113,0.116425665985,0.980130197022,0.159049556013,0.1,0.0,0.0,0.0,0.1,0.0,0.0,0.0,0.1,0.047220371598,-0.00391500995794,-0.00823572201448,0.1,0.0,0.0,0.0,0.1,0.0,0.0,0.0,0.1,-0.589137264877,-0.0855782531641,-9.67664135118,0.1,0.0,0.0,0.0,0.1,0.0,0.0,0.0,0.1
1474477187697080771,1924,1474477187705034017,sparus2,0.0228372765923,0.118538100708,0.979860635494,0.159060719498,0.1,0.0,0.0,0.0,0.1,0.0,0.0,0.0,0.1,0.0575981441253,-0.00449960308141,-0.000700607218156,0.1,0.0,0.0,0.0,0.1,0.0,0.0,0.0,0.1,-0.338960277756,0.0148291731988,-9.67225420441,0.1,0.0,0.0,0.0,0.1,0.0,0.0,0.0,0.1
1474477187807767368,1925,1474477187806379079,sparus2,0.0235943300477,0.12185814657,0.979425470714,0.1591214851,0.1,0.0,0.0,0.0,0.1,0.0,0.0,0.0,0.1,0.0698038128162,-0.0028564769267,0.000508006580372,0.1,0.0,0.0,0.0,0.1,0.0,0.0,0.0,0.1,-0.458840780578,-1.09556663798,-10.1954285338,0.1,0.0,0.0,0.0,0.1,0.0,0.0,0.0,0.1
